time,seconds_elapsed,z,y,x
1765549747743772000,0.06177197265625,-0.040663670748472214,-0.1722937524318695,-0.054585278034210205
1765549747753764900,0.071764892578125,-0.05783151835203171,-0.15973372757434845,-0.07589730620384216
1765549747763757800,0.0817578125,-0.06756962835788727,-0.1998843401670456,-0.10162344574928284
1765549747773751800,0.091751708984375,-0.07062450051307678,-0.29165375232696533,-0.11208704859018326
1765549747783744800,0.101744873046875,-0.08464284986257553,-0.3612440228462219,-0.07871311157941818
1765549747793737700,0.11173779296875,-0.04826529696583748,-0.38711732625961304,-0.008319038897752762
1765549747803730700,0.121730712890625,-0.027169331908226013,-0.37751954793930054,0.06067174673080444
1765549747813724000,0.131723876953125,-0.017341509461402893,-0.35912370681762695,0.11603759229183197
1765549747823718000,0.1417177734375,-0.011494272388517857,-0.3425881564617157,0.14858967065811157
1765549747833710600,0.151710693359375,-0.018402718007564545,-0.35700905323028564,0.1429876983165741
1765549747843703800,0.161703857421875,-0.04966476559638977,-0.41339001059532166,0.09888628870248795
1765549747853696800,0.17169677734375,-0.09724753350019455,-0.4979192018508911,0.03889606148004532
1765549747863689700,0.181689697265625,-0.14964868128299713,-0.5321871042251587,0.0062595559284091
1765549747873683700,0.19168359375,-0.20697355270385742,-0.4734562635421753,-0.004824378527700901
1765549747883676700,0.2016767578125,-0.2540428042411804,-0.4085339903831482,-0.03770989179611206
1765549747893670000,0.211669921875,-0.31276628375053406,-0.4408285915851593,-0.09369801729917526
1765549747903662600,0.22166259765625,-0.3710266649723053,-0.5638141632080078,-0.14850054681301117
1765549747913655800,0.23165576171875,-0.41089582443237305,-0.724830687046051,-0.21747973561286926
1765549747923649800,0.24164990234375,-0.45347073674201965,-0.8958953619003296,-0.2806829512119293
1765549747933642800,0.251642822265625,-0.47891899943351746,-0.9714496731758118,-0.31352725625038147
1765549747943635700,0.2616357421875,-0.4699974060058594,-0.9506333470344543,-0.31691774725914
1765549747953628700,0.271628662109375,-0.43362241983413696,-0.8904942274093628,-0.30438846349716187
1765549747963622000,0.281621826171875,-0.40012943744659424,-0.8174173831939697,-0.2742542624473572
1765549747973615600,0.29161572265625,-0.38853371143341064,-0.6885024309158325,-0.24685952067375183
1765549747983608800,0.30160888671875,-0.414509654045105,-0.5060220956802368,-0.23448674380779266
1765549747993601800,0.311601806640625,-0.4456905424594879,-0.3268447816371918,-0.22827091813087463
1765549748003594800,0.3215947265625,-0.48182937502861023,-0.2542496621608734,-0.1935747116804123
1765549748013587700,0.331587646484375,-0.508352518081665,-0.38694310188293457,-0.12295272201299667
1765549748023581700,0.341581787109375,-0.5117461681365967,-0.8292174339294434,-0.034980520606040955
1765549748033575000,0.351574951171875,-0.48467162251472473,-1.4040582180023193,0.08788050711154938
1765549748043567600,0.361567626953125,-0.44998952746391296,-1.8509087562561035,0.22314351797103882
1765549748053560800,0.371560791015625,-0.4293534457683563,-2.0691683292388916,0.3077961802482605
1765549748063553800,0.3815537109375,-0.4175570011138916,-2.0628530979156494,0.3272111415863037
1765549748073547800,0.3915478515625,-0.41526636481285095,-1.924072265625,0.30987459421157837
1765549748083540700,0.401540771484375,-0.4437800347805023,-1.774438500404358,0.27636775374412537
1765549748093533700,0.41153369140625,-0.5066397786140442,-1.6530539989471436,0.25912922620773315
1765549748103527000,0.42152685546875,-0.6458938121795654,-1.6562551259994507,0.24888217449188232
1765549748113519600,0.43151953125,-0.8598757386207581,-1.7586870193481445,0.1796564757823944
1765549748123513600,0.441513671875,-1.0701276063919067,-1.878728985786438,0.005541132763028145
1765549748133506800,0.4515068359375,-1.2753915786743164,-1.9310778379440308,-0.2908007502555847
1765549748143499800,0.461499755859375,-1.3883942365646362,-1.8491883277893066,-0.6253963112831116
1765549748153492700,0.47149267578125,-1.2583390474319458,-1.7994065284729004,-0.8788904547691345
1765549748163485700,0.481485595703125,-0.8513603806495667,-1.8615906238555908,-0.9734292030334473
1765549748173479000,0.49147900390625,-0.4543110728263855,-1.9810237884521484,-0.9120222926139832
1765549748183472600,0.50147265625,-0.19285842776298523,-2.20894193649292,-0.7308841943740845
1765549748193465600,0.511465576171875,-0.10425422340631485,-2.725471258163452,-0.5576445460319519
1765549748203458800,0.521458740234375,-0.054036322981119156,-3.285208225250244,-0.4039037227630615
1765549748213451800,0.53145166015625,-0.02297954447567463,-3.495285749435425,-0.23798784613609314
1765549748223444700,0.54144482421875,-0.1128135621547699,-3.4180338382720947,-0.1927521973848343
1765549748233438700,0.551438720703125,-0.4369015693664551,-3.208829402923584,-0.3472013473510742
1765549748243431700,0.561431640625,-0.8935160040855408,-2.8912525177001953,-0.663364052772522
1765549748253424600,0.571424560546875,-1.3210216760635376,-2.454227924346924,-1.0164549350738525
1765549748263417600,0.58141748046875,-1.5843305587768555,-2.069211959838867,-1.3193258047103882
1765549748273410800,0.591410888671875,-1.6235697269439697,-1.7446473836898804,-1.5046091079711914
1765549748283404800,0.60140478515625,-1.3963278532028198,-1.5725460052490234,-1.5596579313278198
1765549748293397800,0.611397705078125,-1.0418468713760376,-1.778054118156433,-1.5028284788131714
1765549748303390700,0.621390625,-0.8380566835403442,-2.253160238265991,-1.3759874105453491
1765549748313384000,0.631384033203125,-0.8764162659645081,-2.7414169311523438,-1.2560298442840576
1765549748323376600,0.641376708984375,-0.9318933486938477,-3.1049726009368896,-1.150492548942566
1765549748333370600,0.65137060546875,-0.963956892490387,-3.0484251976013184,-0.9979727864265442
1765549748343363800,0.66136376953125,-0.9842872023582458,-2.9073500633239746,-0.8438596725463867
1765549748353356800,0.671356689453125,-0.9801434278488159,-3.170304536819458,-1.0067583322525024
1765549748363349800,0.681349853515625,-1.0100120306015015,-3.4728994369506836,-1.4053553342819214
1765549748373342700,0.6913427734375,-1.0699450969696045,-3.609678030014038,-1.8522599935531616
1765549748383336700,0.701336669921875,-1.102614402770996,-3.531895160675049,-2.1359269618988037
1765549748393330000,0.711329833984375,-1.1218578815460205,-3.226318359375,-2.1470234394073486
1765549748403322600,0.721322509765625,-1.1291842460632324,-2.947500705718994,-1.9825609922409058
1765549748413315800,0.73131591796875,-1.1371848583221436,-2.7495968341827393,-1.7342925071716309
1765549748423308800,0.741308837890625,-1.1191869974136353,-2.5820205211639404,-1.503832459449768
1765549748433302500,0.751302490234375,-1.091300368309021,-2.5676581859588623,-1.3100495338439941
1765549748443295700,0.761295654296875,-1.1474895477294922,-2.881401538848877,-1.0980174541473389
1765549748453288700,0.771288818359375,-1.2569187879562378,-3.3769328594207764,-0.8489493131637573
1765549748463281700,0.78128173828125,-1.4219573736190796,-3.7387330532073975,-0.6699308156967163
1765549748473274600,0.791274658203125,-1.5289814472198486,-3.710545301437378,-0.700972855091095
1765549748483268900,0.801268798828125,-1.5063267946243286,-3.4365427494049072,-0.8162654042243958
1765549748493261800,0.81126171875,-1.319387674331665,-3.254575729370117,-0.9329375624656677
1765549748503254500,0.821254638671875,-1.0423864126205444,-3.2410662174224854,-1.0334726572036743
1765549748513247700,0.831247802734375,-0.4516869783401489,-3.1872329711914062,-1.0508966445922852
1765549748523240700,0.84124072265625,0.25429093837738037,-2.475862741470337,-1.2975071668624878
1765549748533235000,0.85123486328125,0.28433698415756226,-1.4743483066558838,-1.719677209854126
1765549748543227600,0.8612275390625,0.16176630556583405,-1.1744660139083862,-1.983954906463623
1765549748553220900,0.871220947265625,0.14522108435630798,-1.2000110149383545,-2.1570849418640137
1765549748563213800,0.8812138671875,0.006114589050412178,-1.5355291366577148,-2.2428970336914062
1765549748573206800,0.891206787109375,-0.22178852558135986,-1.7329648733139038,-2.3302314281463623
1765549748583201500,0.901201416015625,-0.5062271952629089,-1.6384130716323853,-2.405036449432373
1765549748593194800,0.91119482421875,-0.7038235068321228,-1.5025990009307861,-2.5002341270446777
1765549748603187500,0.9211875,-0.7155352830886841,-1.478119969367981,-2.5825936794281006
1765549748613180700,0.9311806640625,-0.5266854166984558,-1.4845739603042603,-2.6293163299560547
1765549748623173600,0.941173583984375,-0.2713988125324249,-1.3239784240722656,-2.6168148517608643
1765549748633167600,0.951167724609375,-0.09474281966686249,-1.0359565019607544,-2.575161933898926
1765549748643160600,0.96116064453125,-0.050510648638010025,-0.9220959544181824,-2.428457021713257
1765549748653153500,0.971153564453125,-0.04083239287137985,-0.8318930268287659,-2.1603567600250244
1765549748663146800,0.981146728515625,0.04390726238489151,-0.6965700387954712,-1.8369406461715698
1765549748673139500,0.991139404296875,0.11375491321086884,-0.7598392963409424,-1.5765527486801147
1765549748683133700,1.0011337890625,0.27386629581451416,-0.9930390119552612,-1.4174853563308716
1765549748693126700,1.011126708984375,0.5164394974708557,-1.473050594329834,-1.3133138418197632
1765549748703119600,1.02111962890625,0.6442312598228455,-2.4428412914276123,-1.2530683279037476
1765549748713112600,1.031112548828125,0.6339083909988403,-3.489006996154785,-1.1119760274887085
1765549748723105800,1.041105712890625,0.6141921877861023,-3.9330642223358154,-0.849175214767456
1765549748733099800,1.051099853515625,0.5107077360153198,-3.682935953140259,-0.6562950015068054
1765549748743092500,1.061092529296875,0.22816042602062225,-3.122568130493164,-0.7316134572029114
1765549748753085700,1.071085693359375,-0.08261141180992126,-2.6192610263824463,-1.146290898323059
1765549748763078700,1.08107861328125,-0.4568246603012085,-2.1561570167541504,-1.8604305982589722
1765549748773071600,1.091071533203125,-0.4735337495803833,-1.998984694480896,-2.4087259769439697
1765549748783065600,1.101065673828125,-0.5470444560050964,-2.0242879390716553,-2.6578657627105713
1765549748793058600,1.11105859375,-0.6364067792892456,-2.0513482093811035,-2.7621400356292725
1765549748803051800,1.1210517578125,-0.517494797706604,-2.1386172771453857,-2.635706901550293
1765549748813044500,1.13104443359375,-0.2107630968093872,-2.14418625831604,-2.5172760486602783
1765549748823037700,1.14103759765625,0.14521817862987518,-2.088029623031616,-2.4270968437194824
1765549748833031700,1.15103173828125,0.36963850259780884,-2.1386144161224365,-2.3787355422973633
1765549748843024600,1.161024658203125,0.42496541142463684,-2.1971235275268555,-2.4140946865081787
1765549748853017600,1.171017578125,0.34490159153938293,-2.133662700653076,-2.5104658603668213
1765549748863010600,1.181010498046875,0.15642516314983368,-2.038236379623413,-2.5877766609191895
1765549748873003800,1.191003662109375,-0.05901545286178589,-1.8576825857162476,-2.6376025676727295
1765549748882997500,1.20099755859375,-0.1669222116470337,-1.6201525926589966,-2.6838431358337402
1765549748892990500,1.210990478515625,-0.13561373949050903,-1.3452258110046387,-2.731797218322754
1765549748902983700,1.220983642578125,0.005400100257247686,-1.1134657859802246,-2.7760632038116455
1765549748912976600,1.2309765625,0.15155303478240967,-0.8294697999954224,-2.749039649963379
1765549748922969600,1.240969482421875,0.2484569400548935,-0.5551897883415222,-2.684159278869629
1765549748932963600,1.250963623046875,0.2911977171897888,-0.12973347306251526,-2.678743600845337
1765549748942956800,1.260956787109375,0.3312162458896637,0.13008904457092285,-2.6005847454071045
1765549748952949500,1.270949462890625,0.3790627419948578,0.15038809180259705,-2.4428000450134277
1765549748962942700,1.280942626953125,0.4617837369441986,0.30137041211128235,-2.336383104324341
1765549748972935700,1.290935791015625,0.5189463496208191,0.4913378357887268,-2.3800246715545654
1765549748982929700,1.3009296875,0.4753600060939789,0.032476771622896194,-2.5632643699645996
1765549748992922600,1.310922607421875,0.46071162819862366,-0.7283275723457336,-2.732999324798584
1765549749002915600,1.32091552734375,0.5467623472213745,-1.4034866094589233,-2.7412350177764893
1765549749012908800,1.33090869140625,0.7750491499900818,-1.7061587572097778,-2.576101064682007
1765549749022901500,1.340901611328125,1.0042636394500732,-1.883387804031372,-2.401181697845459
1765549749032895500,1.3508955078125,1.1517746448516846,-1.9259216785430908,-2.3091800212860107
1765549749042888700,1.360888671875,1.261788249015808,-1.8633613586425781,-2.2883570194244385
1765549749052881700,1.370881591796875,1.3791321516036987,-1.774734377861023,-2.274622678756714
1765549749062874600,1.38087451171875,1.4964044094085693,-1.6742085218429565,-2.2363040447235107
1765549749072867600,1.39086767578125,1.5725915431976318,-1.65041184425354,-2.18965220451355
1765549749082861600,1.400861572265625,1.5833262205123901,-1.7483954429626465,-2.1815927028656006
1765549749092854800,1.410854736328125,1.5251655578613281,-1.697293996810913,-2.0217883586883545
1765549749102847500,1.420847412109375,1.4349110126495361,-1.8362600803375244,-1.8189311027526855
1765549749112840700,1.4308408203125,1.1827398538589478,-0.9105398058891296,-1.4872031211853027
1765549749122833700,1.440833740234375,0.9994558691978455,-0.714296281337738,-1.4505913257598877
1765549749132827600,1.45082763671875,1.1847453117370605,-0.31990447640419006,-2.106607675552368
1765549749142820600,1.460820556640625,1.1503164768218994,0.06523842364549637,-2.4757115840911865
1765549749152813600,1.4708134765625,0.8322078585624695,-0.44139304757118225,-2.305361747741699
1765549749162806500,1.480806640625,0.6260136961936951,-0.8102115988731384,-2.0805962085723877
1765549749172799500,1.490799560546875,0.5516389012336731,-0.8196201920509338,-2.054791212081909
1765549749182793700,1.500793701171875,0.6744406819343567,-0.9885509014129639,-1.9923973083496094
1765549749192786700,1.51078662109375,0.819167971611023,-1.2594770193099976,-1.8950573205947876
1765549749202779600,1.520779541015625,1.009253978729248,-1.3288121223449707,-1.803659439086914
1765549749212772600,1.530772705078125,1.1951152086257935,-1.1752909421920776,-1.7269651889801025
1765549749222765600,1.540765625,1.3119304180145264,-0.7794776558876038,-1.7204058170318604
1765549749232759800,1.550759765625,1.2872090339660645,-0.6973599791526794,-1.8617970943450928
1765549749242752500,1.56075244140625,1.2279508113861084,-0.4954926669597626,-1.9558138847351074
1765549749252745700,1.570745849609375,1.2243175506591797,-0.23854772746562958,-1.9911837577819824
1765549749262738700,1.58073876953125,1.2530384063720703,-0.07117895781993866,-2.009166955947876
1765549749272731600,1.590731689453125,1.2369529008865356,-0.09887157380580902,-2.0486090183258057
1765549749282725600,1.6007255859375,1.1519898176193237,-0.28110262751579285,-2.087341785430908
1765549749292718600,1.610718505859375,0.9747974872589111,-0.5764159560203552,-2.057457685470581
1765549749302711800,1.6207119140625,0.9506303668022156,-0.4911481440067291,-1.7871328592300415
1765549749312704500,1.63070458984375,1.1355443000793457,-0.3996603488922119,-1.5227601528167725
1765549749322697700,1.64069775390625,1.4085222482681274,-0.4390751123428345,-1.385753870010376
1765549749332690700,1.650690673828125,1.588791847229004,-0.5424661040306091,-1.3018640279769897
1765549749342684400,1.660684326171875,1.6677780151367188,-0.6115516424179077,-1.3202393054962158
1765549749352677600,1.670677734375,1.661756157875061,-0.7143300175666809,-1.401203989982605
1765549749362670600,1.680670654296875,1.553181767463684,-0.8511922359466553,-1.4498438835144043
1765549749372663800,1.690663818359375,1.3012628555297852,-0.9592989087104797,-1.372464656829834
1765549749382657500,1.700657470703125,0.9188129901885986,-0.9505112767219543,-1.104876160621643
1765549749392650500,1.710650390625,0.6051525473594666,-0.8625440001487732,-0.7939766645431519
1765549749402643700,1.720643798828125,0.4737284779548645,-0.8406773209571838,-0.7379786372184753
1765549749412636400,1.730636474609375,0.55317622423172,-0.7850145697593689,-0.8932061195373535
1765549749422629600,1.740629638671875,0.8367810249328613,-0.8141980171203613,-1.0728192329406738
1765549749432623600,1.75062353515625,1.010744333267212,-0.8849793672561646,-1.2503589391708374
1765549749442616600,1.760616455078125,1.1241880655288696,-0.8922386169433594,-1.3265764713287354
1765549749452609500,1.770609619140625,1.2381978034973145,-0.7718834280967712,-1.2814983129501343
1765549749462602500,1.7806025390625,1.2706066370010376,-0.6050062775611877,-1.1967743635177612
1765549749472595700,1.790595703125,1.2111316919326782,-0.48234686255455017,-1.1345726251602173
1765549749482589700,1.800589599609375,1.1307809352874756,-0.5096173286437988,-1.0908230543136597
1765549749492582700,1.810582763671875,1.0977450609207153,-0.551619827747345,-1.0492466688156128
1765549749502575600,1.82057568359375,1.0939844846725464,-0.5696614384651184,-1.0003811120986938
1765549749512568800,1.83056884765625,1.1174116134643555,-0.584394097328186,-0.9896609783172607
1765549749522561500,1.8405615234375,1.1267305612564087,-0.5566067099571228,-1.0236923694610596
1765549749532554800,1.8505546875,1.1235501766204834,-0.5163879990577698,-1.0325987339019775
1765549749542548700,1.860548828125,1.083970546722412,-0.45777130126953125,-0.977047860622406
1765549749552541700,1.870541748046875,0.9657500982284546,-0.43582600355148315,-0.8658897280693054
1765549749562534700,1.88053466796875,0.7516287565231323,-0.5294939279556274,-0.7346560955047607
1765549749572527600,1.890527587890625,0.5443198680877686,-0.6233083009719849,-0.5992627739906311
1765549749582521300,1.900521240234375,0.40932798385620117,-0.7545943856239319,-0.474241703748703
1765549749592514600,1.9105146484375,0.35979509353637695,-0.8470780849456787,-0.39766815304756165
1765549749602507300,1.92050732421875,0.3307189643383026,-0.8947840929031372,-0.3696085512638092
1765549749612500500,1.93050048828125,0.26320090889930725,-0.8786914944648743,-0.3233501613140106
1765549749622493400,1.940493408203125,0.19688743352890015,-0.9085537791252136,-0.29844826459884644
1765549749632487400,1.9504873046875,0.22624939680099487,-0.9035362601280212,-0.3011801242828369
1765549749642480400,1.96048046875,0.27361956238746643,-0.8264380097389221,-0.23296059668064117
1765549749652473300,1.970473388671875,0.21695809066295624,-0.8189818263053894,-0.11228463053703308
1765549749662466600,1.980466552734375,0.13601717352867126,-0.8577840924263,0.05913878604769707
1765549749672459300,1.990459228515625,0.10392925888299942,-0.89658522605896,0.25972723960876465
1765549749682452500,2.000452392578125,0.10172655433416367,-0.9434803128242493,0.44091832637786865
1765549749692446500,2.010446533203125,0.059889055788517,-0.9655179381370544,0.5735381245613098
1765549749702439400,2.020439453125,-0.013043740764260292,-0.9740880131721497,0.662673830986023
1765549749712432400,2.030432373046875,-0.07302428036928177,-0.9381115436553955,0.7765201330184937
1765549749722425300,2.04042529296875,-0.1455083191394806,-0.8966629505157471,0.8881753087043762
1765549749732419600,2.050419677734375,-0.2449522465467453,-0.8659124970436096,1.0157426595687866
1765549749742412300,2.060412353515625,-0.3465483486652374,-0.8151363730430603,1.1323400735855103
1765549749752405500,2.070405517578125,-0.4407983124256134,-0.7844551801681519,1.2566816806793213
1765549749762398500,2.0803984375,-0.5708532333374023,-0.824499249458313,1.4250602722167969
1765549749772391400,2.090391357421875,-0.7349586486816406,-0.916549026966095,1.67782723903656
1765549749782384400,2.10038427734375,-0.9039934873580933,-1.0133821964263916,2.0346479415893555
1765549749792378400,2.11037841796875,-1.07481849193573,-1.1027450561523438,2.3617265224456787
1765549749802371600,2.12037158203125,-1.25151526927948,-1.1742075681686401,2.596341609954834
1765549749812364300,2.1303642578125,-1.3984891176223755,-1.1877669095993042,2.8187572956085205
1765549749822357500,2.140357421875,-1.432961344718933,-1.1894340515136719,3.0175766944885254
1765549749832351500,2.1503515625,-1.4062178134918213,-1.182695984840393,3.209517478942871
1765549749842344400,2.160344482421875,-1.3534678220748901,-1.1396992206573486,3.3690690994262695
1765549749852337400,2.17033740234375,-1.3985878229141235,-0.9911395907402039,3.5252108573913574
1765549749862330400,2.180330322265625,-1.5460524559020996,-0.8233979940414429,3.722679615020752
1765549749872323600,2.190323486328125,-1.687333583831787,-0.7082698345184326,3.940692901611328
1765549749882316300,2.20031640625,-1.8391727209091187,-0.5920926332473755,4.15019416809082
1765549749892310300,2.210310302734375,-1.9697442054748535,-0.5043684840202332,4.336513042449951
1765549749902303500,2.220303466796875,-2.0211262702941895,-0.514314591884613,4.490124702453613
1765549749912296400,2.23029638671875,-2.018820285797119,-0.6315956711769104,4.598150253295898
1765549749922289400,2.240289306640625,-2.1216750144958496,-0.788375198841095,4.761230945587158
1765549749932283400,2.250283447265625,-2.431755304336548,-0.9405497908592224,5.039065361022949
1765549749942276400,2.2602763671875,-2.8084797859191895,-0.9515965580940247,5.399791240692139
1765549749952269300,2.270269287109375,-3.092941999435425,-0.8315657377243042,5.692826271057129
1765549749962262300,2.28026220703125,-3.333346128463745,-0.6565417051315308,5.788447380065918
1765549749972255500,2.29025537109375,-3.5566956996917725,-0.4192284643650055,5.803807258605957
1765549749982249500,2.30024951171875,-3.7113852500915527,-0.13778160512447357,5.760204792022705
1765549749992242400,2.310242431640625,-3.913007974624634,0.15210910141468048,5.705206394195557
1765549750002235400,2.3202353515625,-4.190588474273682,0.4831487834453583,5.652608871459961
1765549750012228600,2.330228515625,-4.506763935089111,0.7522108554840088,5.587066173553467
1765549750022221300,2.34022119140625,-4.763395309448242,0.8203148245811462,5.534415245056152
1765549750032215300,2.35021533203125,-4.909892559051514,0.9286312460899353,5.515314102172852
1765549750042208500,2.36020849609375,-5.007692813873291,1.2717995643615723,5.486144065856934
1765549750052201500,2.370201416015625,-5.043392181396484,1.6295746564865112,5.42542028427124
1765549750062194400,2.3801943359375,-4.973807334899902,1.8799946308135986,5.40722131729126
1765549750072187400,2.3901875,-4.959377288818359,1.9562455415725708,5.476858615875244
1765549750082181400,2.400181396484375,-5.140285015106201,1.942475438117981,5.4997172355651855
1765549750092174600,2.410174560546875,-5.409367084503174,1.8476723432540894,5.516464710235596
1765549750102167300,2.420167236328125,-5.6168975830078125,1.7564358711242676,5.58418083190918
1765549750112160500,2.430160400390625,-5.743542671203613,1.6383723020553589,5.634150505065918
1765549750122153500,2.440153564453125,-5.8313517570495605,1.6467205286026,5.597141265869141
1765549750132147200,2.450147216796875,-5.932217121124268,1.780497670173645,5.454809665679932
1765549750142140400,2.460140380859375,-6.099016189575195,2.0509188175201416,5.266376972198486
1765549750152133400,2.47013330078125,-6.348455429077148,2.283818483352661,5.147395610809326
1765549750162126300,2.480126220703125,-6.5863938331604,2.317514419555664,5.091753959655762
1765549750172119300,2.490119384765625,-6.745367050170898,2.2479586601257324,5.037477970123291
1765549750182113500,2.500113525390625,-6.81881046295166,2.3121540546417236,4.939933776855469
1765549750192106500,2.5101064453125,-6.8254523277282715,2.5171470642089844,4.780406951904297
1765549750202099200,2.52009912109375,-6.781742572784424,2.719231605529785,4.56144905090332
1765549750212092400,2.530092529296875,-6.7421369552612305,2.775519847869873,4.351847171783447
1765549750222085400,2.54008544921875,-6.733097553253174,2.7847065925598145,4.251004695892334
1765549750232079600,2.55007958984375,-6.809126853942871,2.772080183029175,4.211422443389893
1765549750242072300,2.560072265625,-7.001548767089844,2.7424983978271484,4.143091201782227
1765549750252065500,2.5700654296875,-7.18660306930542,2.7635204792022705,4.024599075317383
1765549750262058500,2.58005859375,-7.233852863311768,2.7564330101013184,3.88692569732666
1765549750272051500,2.590051513671875,-7.194337368011475,2.671736240386963,3.7316582202911377
1765549750282045400,2.60004541015625,-7.151691913604736,2.4731650352478027,3.5449023246765137
1765549750292038400,2.610038330078125,-7.0912861824035645,2.274492025375366,3.351104497909546
1765549750302031600,2.620031494140625,-7.0295000076293945,2.061375856399536,3.1439132690429688
1765549750312024300,2.6300244140625,-6.988334655761719,1.8914963006973267,2.8553733825683594
1765549750322017500,2.640017578125,-6.879623889923096,1.8242355585098267,2.473771333694458
1765549750332011500,2.650011474609375,-6.626227378845215,1.7551058530807495,2.168552875518799
1765549750342004200,2.660004150390625,-6.295281410217285,1.6953165531158447,1.9509799480438232
1765549750351997400,2.66999755859375,-5.9377946853637695,1.7603919506072998,1.7503676414489746
1765549750361990400,2.679990478515625,-5.62869930267334,1.8310277462005615,1.5597721338272095
1765549750371984400,2.689984375,-5.458065509796143,1.8524088859558105,1.3920135498046875
1765549750381977300,2.699977294921875,-5.380441665649414,1.8080531358718872,1.238410472869873
1765549750391970300,2.70997021484375,-5.270941734313965,1.796580195426941,1.1097192764282227
1765549750401963500,2.719963623046875,-5.098569393157959,1.754202961921692,0.971463143825531
1765549750411956200,2.729956298828125,-4.857602596282959,1.6939619779586792,0.8499120473861694
1765549750421949400,2.739949462890625,-4.5572333335876465,1.6169722080230713,0.6912760734558105
1765549750431943400,2.749943359375,-4.2414984703063965,1.5103915929794312,0.5477671027183533
1765549750441936400,2.759936279296875,-3.912152051925659,1.3765275478363037,0.46911513805389404
1765549750451929300,2.769929443359375,-3.608936309814453,1.249614953994751,0.3839317858219147
1765549750461922300,2.77992236328125,-3.3727517127990723,1.0739901065826416,0.25231119990348816
1765549750471915500,2.78991552734375,-3.0893096923828125,0.9941492080688477,0.07795242965221405
1765549750481909500,2.799909423828125,-2.740288257598877,0.9733051657676697,-0.14124809205532074
1765549750491902500,2.80990234375,-2.3610074520111084,0.9728204011917114,-0.3390803933143616
1765549750501895400,2.8198955078125,-2.0059502124786377,0.9586153626441956,-0.4983675181865692
1765549750511888400,2.829888427734375,-1.6712406873703003,0.8966552019119263,-0.6112942099571228
1765549750521881300,2.83988134765625,-1.336324691772461,0.7917175889015198,-0.6545609831809998
1765549750531875300,2.849875244140625,-1.0409849882125854,0.6854380965232849,-0.6526480913162231
1765549750541868500,2.85986865234375,-0.8127472400665283,0.5310072898864746,-0.6366869807243347
1765549750551861500,2.869861572265625,-0.5974794030189514,0.34273844957351685,-0.6202617287635803
1765549750561854500,2.8798544921875,-0.37482792139053345,0.16390079259872437,-0.5634767413139343
1765549750571847400,2.889847412109375,-0.14261813461780548,-0.010797565802931786,-0.46995383501052856
1765549750581841400,2.89984130859375,0.08703318238258362,-0.10518185794353485,-0.40388426184654236
1765549750591834600,2.909834716796875,0.336979478597641,-0.12763354182243347,-0.3880085349082947
1765549750601827300,2.919827392578125,0.5904492735862732,-0.11633826792240143,-0.36741432547569275
1765549750611820500,2.929820556640625,0.8090192675590515,-0.07724056392908096,-0.31406477093696594
1765549750621813500,2.9398134765625,0.9835774898529053,-0.017259521409869194,-0.2566126585006714
1765549750631807500,2.949807373046875,1.134256362915039,0.0336742028594017,-0.1901671588420868
1765549750641800400,2.959800537109375,1.273924469947815,0.06645584851503372,-0.09152873605489731
1765549750651793400,2.96979345703125,1.4214996099472046,0.06435614824295044,0.025171656161546707
1765549750661786600,2.97978662109375,1.5577280521392822,0.06630078703165054,0.12103267014026642
1765549750671779300,2.989779296875,1.6696504354476929,0.045987289398908615,0.18443669378757477
1765549750681773300,2.999773193359375,1.7627861499786377,0.011402416974306107,0.24561776220798492
1765549750691766500,3.0097666015625,1.8426228761672974,-0.04467475414276123,0.3070389926433563
1765549750701759500,3.019759521484375,1.8886220455169678,-0.1483481526374817,0.34446626901626587
1765549750711752400,3.02975244140625,1.8908799886703491,-0.28453895449638367,0.3804073631763458
1765549750721746400,3.039746337890625,1.8538929224014282,-0.4525340795516968,0.3988353908061981
1765549750731739600,3.04973974609375,1.7954133749008179,-0.6003899574279785,0.3933447301387787
1765549750741732600,3.059732666015625,1.7520322799682617,-0.6796438097953796,0.35041138529777527
1765549750751725300,3.069725341796875,1.7357699871063232,-0.7453206777572632,0.2573966383934021
1765549750761718500,3.079718505859375,1.7473998069763184,-0.8487762212753296,0.14306582510471344
1765549750771711500,3.08971142578125,1.758662223815918,-0.8848598003387451,0.08068821579217911
1765549750781705700,3.099705810546875,1.7885487079620361,-0.9201272130012512,0.08879940956830978
1765549750791698400,3.109698486328125,1.8582921028137207,-0.9918692708015442,0.1189156249165535
1765549750801691600,3.119691650390625,1.9520686864852905,-1.0702705383300781,0.17060652375221252
1765549750811684600,3.1296845703125,1.9678772687911987,-1.139708161354065,0.17387592792510986
1765549750821677600,3.139677490234375,1.9486838579177856,-1.1662689447402954,0.11098963767290115
1765549750831671600,3.149671630859375,1.9347856044769287,-1.0570780038833618,-0.01460365392267704
1765549750841664500,3.15966455078125,1.9586677551269531,-0.9229971170425415,-0.17521463334560394
1765549750851657500,3.169657470703125,2.0441720485687256,-0.8414433598518372,-0.4765970706939697
1765549750861650400,3.179650390625,2.13506817817688,-0.8504844903945923,-0.7762192487716675
1765549750871644400,3.18964453125,2.201190948486328,-0.9547262191772461,-1.0189464092254639
1765549750881637600,3.1996376953125,2.2323882579803467,-1.1822738647460938,-1.1664689779281616
1765549750891630300,3.20963037109375,2.2460479736328125,-1.4285314083099365,-1.2014390230178833
1765549750901623600,3.21962353515625,2.2558295726776123,-1.5962210893630981,-1.1585369110107422
1765549750911616500,3.229616455078125,2.2829253673553467,-1.6800824403762817,-1.099441409111023
1765549750921610500,3.239610595703125,2.3471622467041016,-1.7233729362487793,-1.1223549842834473
1765549750931603500,3.249603515625,2.465883493423462,-1.7517281770706177,-1.2222542762756348
1765549750941596400,3.259596435546875,2.623542547225952,-1.8128209114074707,-1.3442747592926025
1765549750951589600,3.269589599609375,2.795793056488037,-1.870998501777649,-1.4737024307250977
1765549750961582300,3.279582275390625,2.9810032844543457,-1.8795632123947144,-1.6070208549499512
1765549750971576600,3.28957666015625,3.166741132736206,-1.8448517322540283,-1.7680562734603882
1765549750981569500,3.299569580078125,3.323592185974121,-1.7868448495864868,-1.930116057395935
1765549750991562500,3.3095625,3.422149896621704,-1.6831047534942627,-2.0302462577819824
1765549751001555500,3.319555419921875,3.4673640727996826,-1.6233659982681274,-2.0995242595672607
1765549751011548400,3.32954833984375,3.497361183166504,-1.611590027809143,-2.1532959938049316
1765549751021542700,3.339542724609375,3.535499334335327,-1.5602493286132812,-2.126192569732666
1765549751031535400,3.349535400390625,3.608365774154663,-1.5365664958953857,-2.077810764312744
1765549751041528600,3.359528564453125,3.6934683322906494,-1.5748952627182007,-2.034684419631958
1765549751051521500,3.369521484375,3.7884881496429443,-1.6627229452133179,-2.004699468612671
1765549751061514500,3.379514404296875,3.892094373703003,-1.762444257736206,-1.9913891553878784
1765549751071508500,3.389508544921875,3.9866628646850586,-1.855635166168213,-2.005542755126953
1765549751081501400,3.39950146484375,4.089252471923828,-1.9948257207870483,-2.071315288543701
1765549751091494700,3.40949462890625,4.164755821228027,-2.0558738708496094,-2.1681127548217773
1765549751101487400,3.4194873046875,4.128232479095459,-2.0220189094543457,-2.2832915782928467
1765549751111480600,3.42948046875,3.938378095626831,-1.92930269241333,-2.413743495941162
1765549751121474600,3.439474609375,3.6589605808258057,-1.8820233345031738,-2.558619260787964
1765549751131467500,3.449467529296875,3.4544873237609863,-1.905257225036621,-2.6984941959381104
1765549751141460500,3.45946044921875,3.4157392978668213,-1.8469278812408447,-2.754584550857544
1765549751151453400,3.469453369140625,3.465439558029175,-1.7415916919708252,-2.743870973587036
1765549751161446700,3.47944677734375,3.5396711826324463,-1.6919724941253662,-2.722729444503784
1765549751171440600,3.489440673828125,3.627747058868408,-1.6824554204940796,-2.7138736248016357
1765549751181433300,3.499433349609375,3.6881487369537354,-1.6921128034591675,-2.7720694541931152
1765549751191426600,3.509426513671875,3.677196979522705,-1.738728404045105,-2.8716399669647217
1765549751201419500,3.51941943359375,3.60764741897583,-1.767049789428711,-2.9587154388427734
1765549751211412500,3.52941259765625,3.4979090690612793,-1.7210673093795776,-2.998157024383545
1765549751221406500,3.539406494140625,3.330716371536255,-1.6073436737060547,-2.9647786617279053
1765549751231399400,3.5493994140625,3.0879194736480713,-1.449081540107727,-2.831885576248169
1765549751241392600,3.559392578125,2.8779373168945312,-1.3185250759124756,-2.6188082695007324
1765549751251385300,3.56938525390625,2.836770534515381,-1.3110466003417969,-2.4161722660064697
1765549751261378600,3.579378662109375,2.9286084175109863,-1.4358564615249634,-2.243861198425293
1765549751271372500,3.58937255859375,3.029381513595581,-1.6076871156692505,-2.091468334197998
1765549751281365500,3.599365478515625,3.102731227874756,-1.733730435371399,-1.9983134269714355
1765549751291358500,3.6093583984375,3.135075330734253,-1.7082023620605469,-1.993259072303772
1765549751301351400,3.619351318359375,3.093249559402466,-1.6108241081237793,-2.0578932762145996
1765549751311344400,3.629344482421875,2.9811294078826904,-1.4838649034500122,-2.137611150741577
1765549751321338400,3.63933837890625,2.875241279602051,-1.327959418296814,-2.1691203117370605
1765549751331331600,3.64933154296875,2.8495099544525146,-1.281211018562317,-2.120502233505249
1765549751341324500,3.659324462890625,2.8483848571777344,-1.2698816061019897,-1.8924298286437988
1765549751351317500,3.6693173828125,2.9532437324523926,-1.0685904026031494,-1.6699268817901611
1765549751361310500,3.679310546875,3.1016452312469482,-1.1195592880249023,-1.669195532798767
1765549751371304400,3.689304443359375,3.2864561080932617,-1.0724560022354126,-1.6741873025894165
1765549751381297700,3.699297607421875,3.4194860458374023,-0.862238347530365,-1.7011833190917969
1765549751391290400,3.709290283203125,3.481311559677124,-0.6261559128761292,-1.7416963577270508
1765549751401283600,3.71928369140625,3.495392084121704,-0.4419408440589905,-1.8105039596557617
1765549751411277600,3.729277587890625,3.458216667175293,-0.3119317591190338,-1.9269706010818481
1765549751421270500,3.7392705078125,3.4450430870056152,-0.38603076338768005,-2.015840768814087
1765549751431263500,3.749263427734375,3.4302549362182617,-0.47006461024284363,-1.969863772392273
1765549751441256400,3.75925634765625,3.368262529373169,-0.5421076416969299,-1.774112582206726
1765549751451249700,3.769249755859375,3.2552130222320557,-0.4047969579696655,-1.5686116218566895
1765549751461243400,3.779243408203125,3.1001484394073486,-0.22108040750026703,-1.4453964233398438
1765549751471236400,3.789236328125,2.980518102645874,-0.05696340277791023,-1.4319404363632202
1765549751481229600,3.7992294921875,2.8798577785491943,0.1333916336297989,-1.5650311708450317
1765549751491222300,3.80922216796875,2.7884299755096436,0.3303864896297455,-1.8321080207824707
1765549751501215500,3.819215576171875,2.708594799041748,0.5177915096282959,-2.138638734817505
1765549751511209500,3.82920947265625,2.6221370697021484,0.6908999085426331,-2.413994073867798
1765549751521202700,3.83920263671875,2.5078322887420654,0.7596166133880615,-2.627046823501587
1765549751531195400,3.8491953125,2.365584373474121,0.7557496428489685,-2.7137651443481445
1765549751541188400,3.859188232421875,2.2258834838867188,0.7853602766990662,-2.689326524734497
1765549751551181600,3.869181640625,2.0575313568115234,0.8656951189041138,-2.599749803543091
1765549751561175600,3.879175537109375,1.8897318840026855,0.9396316409111023,-2.466848850250244
1765549751571168500,3.88916845703125,1.7466732263565063,1.0110480785369873,-2.341383457183838
1765549751581161700,3.89916162109375,1.6339398622512817,1.0201585292816162,-2.2721030712127686
1765549751591154700,3.90915478515625,1.5232009887695312,0.8773762583732605,-2.303227186203003
1765549751601147600,3.919147705078125,1.458654761314392,0.7918754816055298,-2.3662919998168945
1765549751611141600,3.9291416015625,1.4290454387664795,0.8349376916885376,-2.4480419158935547
1765549751621134800,3.939134765625,1.3812873363494873,0.8788620233535767,-2.481626033782959
1765549751631127600,3.94912744140625,1.30153226852417,0.7910566926002502,-2.3859853744506836
1765549751641120800,3.959120849609375,1.2129336595535278,0.6677414178848267,-2.179588556289673
1765549751651113700,3.96911376953125,1.0989205837249756,0.5410255789756775,-1.94234037399292
1765549751661107700,3.979107666015625,0.8954876065254211,0.4817579388618469,-1.689589023590088
1765549751671100700,3.9891005859375,0.6366596221923828,0.5385552048683167,-1.4595626592636108
1765549751681093600,3.99909375,0.37638944387435913,0.6178029179573059,-1.3102946281433105
1765549751691086800,4.0090869140625,0.1564222127199173,0.6954869627952576,-1.2417612075805664
1765549751701079600,4.01907958984375,-0.036395713686943054,0.7714895606040955,-1.2073670625686646
1765549751711073500,4.029073486328125,-0.2063022404909134,0.836129367351532,-1.1658833026885986
1765549751721066800,4.039066650390625,-0.328290730714798,0.8174926042556763,-1.1476174592971802
1765549751731059500,4.0490595703125,-0.44196441769599915,0.8009772300720215,-1.1767014265060425
1765549751741052700,4.059052734375,-0.5334762334823608,0.8210271000862122,-1.2596714496612549
1765549751751045600,4.069045654296875,-0.5656023025512695,0.8907525539398193,-1.365219235420227
1765549751761039600,4.07903955078125,-0.5249331593513489,0.9435553550720215,-1.4062553644180298
1765549751771032600,4.089032470703125,-0.41995513439178467,0.9254880547523499,-1.3804455995559692
1765549751781025500,4.099025634765625,-0.2928107678890228,0.8308142423629761,-1.3149726390838623
1765549751791018800,4.109018798828125,-0.1708880513906479,0.7078481316566467,-1.240654706954956
1765549751801011500,4.119011474609375,-0.08912421017885208,0.5714111924171448,-1.125167727470398
1765549751811005700,4.129005615234375,-0.024396700784564018,0.42641451954841614,-0.9625833630561829
1765549751820998700,4.13899853515625,0.018361415714025497,0.30863967537879944,-0.7884345054626465
1765549751830992000,4.148991943359375,0.02568785846233368,0.22497785091400146,-0.6300552487373352
1765549751840984600,4.158984619140625,-0.0148683562874794,0.1731540709733963,-0.5043071508407593
1765549751850978600,4.168978515625,-0.06993795931339264,0.13702955842018127,-0.41380950808525085
1765549751860971800,4.1789716796875,-0.1182309240102768,0.09254863858222961,-0.33989453315734863
1765549751870964700,4.18896484375,-0.13807637989521027,0.04451103135943413,-0.2585156559944153
1765549751880957700,4.198957763671875,-0.12243618071079254,-0.019408563151955605,-0.15710248053073883
1765549751890950700,4.20895068359375,-0.0935303345322609,-0.07843378186225891,-0.027081187814474106
1765549751900944600,4.218944580078125,-0.06562227755784988,-0.1292133331298828,0.09887807816267014
1765549751910937600,4.2289375,-0.049245916306972504,-0.15164901316165924,0.21476401388645172
1765549751920930600,4.2389306640625,-0.041386928409338,-0.1549617201089859,0.31069427728652954
1765549751930923800,4.248923828125,-0.05561482161283493,-0.17538750171661377,0.3814747929573059
1765549751940916700,4.258916748046875,-0.0764165073633194,-0.2049642950296402,0.42823272943496704
1765549751950910500,4.268910400390625,-0.09573495388031006,-0.22264359891414642,0.4342349171638489
1765549751960903700,4.278903564453125,-0.10736391693353653,-0.2298000454902649,0.4120430648326874
1765549751970896600,4.288896728515625,-0.12013217061758041,-0.21981611847877502,0.364363431930542
1765549751980889600,4.2988896484375,-0.129567489027977,-0.17339269816875458,0.30543404817581177
1765549751990882600,4.308882568359375,-0.13408076763153076,-0.10214374959468842,0.23288550972938538
1765549752000876500,4.31887646484375,-0.13822197914123535,-0.013097232207655907,0.14934773743152618
1765549752010869800,4.328869873046875,-0.13484951853752136,0.05007325857877731,0.06085963174700737
1765549752020862500,4.338862548828125,-0.1312750279903412,0.0886123925447464,-0.0197068490087986
1765549752030855700,4.348855712890625,-0.12550555169582367,0.11925791949033737,-0.08704593777656555
1765549752040848600,4.3588486328125,-0.11434424668550491,0.1418662965297699,-0.15070001780986786
1765549752050843000,4.3688427734375,-0.09293047338724136,0.16151545941829681,-0.20266008377075195
1765549752060835600,4.378835693359375,-0.0639885738492012,0.16767694056034088,-0.2422298640012741
1765549752070828800,4.388828857421875,-0.028891047462821007,0.15509825944900513,-0.2505147159099579
1765549752080821800,4.39882177734375,0.01748470962047577,0.12099621444940567,-0.2313961535692215
1765549752090815700,4.408815673828125,0.07253669202327728,0.07648083567619324,-0.18225912749767303
1765549752100808700,4.41880859375,0.12927933037281036,0.00814385712146759,-0.11783673614263535
1765549752110801700,4.4288017578125,0.1859401911497116,-0.05164771154522896,-0.050956159830093384
1765549752120795000,4.438794921875,0.23182272911071777,-0.09474298357963562,-0.006070977076888084
1765549752130787600,4.44878759765625,0.2658509910106659,-0.1268891841173172,0.01880207657814026
1765549752140781600,4.458781494140625,0.2960493564605713,-0.14808420836925507,0.02170119434595108
1765549752150774800,4.46877490234375,0.33306196331977844,-0.1722641885280609,0.00524556590244174
1765549752160767500,4.478767578125,0.36836615204811096,-0.20440161228179932,-0.01789677143096924
1765549752170760700,4.4887607421875,0.40699502825737,-0.24452973902225494,-0.05889153108000755
1765549752180753700,4.498753662109375,0.43345993757247925,-0.27991434931755066,-0.10512320697307587
1765549752190747600,4.50874755859375,0.4458843171596527,-0.30523455142974854,-0.1637088656425476
1765549752200740600,4.51874072265625,0.46833449602127075,-0.3212744891643524,-0.22403265535831451
1765549752210733600,4.528733642578125,0.48231133818626404,-0.34987950325012207,-0.2835204303264618
1765549752220726800,4.538726806640625,0.4702831506729126,-0.3843218982219696,-0.34249240159988403
1765549752230719500,4.548719482421875,0.4435075521469116,-0.42479074001312256,-0.3995395600795746
1765549752240713500,4.55871337890625,0.4325246810913086,-0.44982391595840454,-0.4439999759197235
1765549752250706700,4.568706787109375,0.4337955713272095,-0.4297703802585602,-0.5034955739974976
1765549752260699600,4.57869970703125,0.44865095615386963,-0.33935365080833435,-0.5787761807441711
1765549752270692600,4.588692626953125,0.46412667632102966,-0.2251468151807785,-0.7001357674598694
1765549752280685600,4.598685546875,0.45628684759140015,-0.10686145722866058,-0.8366355299949646
1765549752290679800,4.6086796875,0.42465493083000183,-0.005543373990803957,-0.9414880871772766
1765549752300672800,4.6186728515625,0.41123923659324646,0.0958319827914238,-1.0134581327438354
1765549752310665700,4.628665771484375,0.43823936581611633,0.15567730367183685,-1.0702507495880127
1765549752320658700,4.63865869140625,0.482605516910553,0.1474073827266693,-1.1118745803833008
1765549752330651600,4.648651611328125,0.5059519410133362,0.06204698234796524,-1.1289801597595215
1765549752340645600,4.658645751953125,0.5110287666320801,-0.030581751838326454,-1.1447287797927856
1765549752350638600,4.668638671875,0.505793571472168,-0.050715137273073196,-1.155941367149353
1765549752360631800,4.6786318359375,0.5101358294487,-0.04000656679272652,-1.1698275804519653
1765549752370624800,4.688624755859375,0.5157946348190308,-0.0365414172410965,-1.2095482349395752
1765549752380618500,4.698618408203125,0.5136361718177795,-0.06641835719347,-1.2593059539794922
1765549752390611700,4.70861181640625,0.494633287191391,-0.12961967289447784,-1.2867695093154907
1765549752400604700,4.718604736328125,0.48485976457595825,-0.20970384776592255,-1.2827200889587402
1765549752410597600,4.72859765625,0.5022886395454407,-0.30915263295173645,-1.2719378471374512
1765549752420590600,4.738590576171875,0.5188985466957092,-0.3916837275028229,-1.270090937614441
1765549752430584600,4.74858447265625,0.5339130759239197,-0.42535239458084106,-1.2976422309875488
1765549752440577800,4.758577880859375,0.5688568949699402,-0.4251614511013031,-1.3519322872161865
1765549752450570500,4.768570556640625,0.629815936088562,-0.4552548825740814,-1.408774733543396
1765549752460563700,4.778563720703125,0.7260380387306213,-0.515235424041748,-1.4455775022506714
1765549752470556700,4.788556640625,0.8226292729377747,-0.5697131156921387,-1.4652611017227173
1765549752480550700,4.798550537109375,0.8784821629524231,-0.6079678535461426,-1.4771720170974731
1765549752490543600,4.808543701171875,0.8965997099876404,-0.6235941648483276,-1.5007998943328857
1765549752500536600,4.81853662109375,0.889305591583252,-0.6028516292572021,-1.5442206859588623
1765549752510529800,4.82852978515625,0.8708595037460327,-0.5648311376571655,-1.5857516527175903
1765549752520522500,4.8385224609375,0.8584966063499451,-0.5174375772476196,-1.600069284439087
1765549752530516700,4.848516845703125,0.8525219559669495,-0.4990936517715454,-1.5848126411437988
1765549752540509700,4.858509765625,0.8456224799156189,-0.5154606699943542,-1.537638783454895
1765549752550502700,4.868502685546875,0.8411293029785156,-0.5695793032646179,-1.4782637357711792
1765549752560495600,4.87849560546875,0.8420281410217285,-0.6297678351402283,-1.4547749757766724
1765549752570488600,4.888488525390625,0.8598291873931885,-0.6597865223884583,-1.4550858736038208
1765549752580483000,4.898483154296875,0.8927269577980042,-0.6636555790901184,-1.4595786333084106
1765549752590475800,4.908475830078125,0.9320275783538818,-0.6684536933898926,-1.4818239212036133
1765549752600469000,4.918468994140625,0.9627548456192017,-0.7045693397521973,-1.4852416515350342
1765549752610462000,4.9284619140625,0.98918217420578,-0.7912172675132751,-1.4542380571365356
1765549752620456000,4.9384560546875,1.039341688156128,-0.8722923994064331,-1.4182820320129395
1765549752630449000,4.948448974609375,1.09451162815094,-0.8957845568656921,-1.3748196363449097
1765549752640441900,4.95844189453125,1.126476526260376,-0.8455126285552979,-1.3036972284317017
1765549752650435000,4.96843505859375,1.0668997764587402,-0.744567334651947,-1.210075855255127
1765549752660427800,4.978427734375,0.911806046962738,-0.6711376309394836,-1.0892013311386108
1765549752670421800,4.988421875,0.7063076496124268,-0.6242055892944336,-0.9466977715492249
1765549752680415000,4.9984150390625,0.5047364830970764,-0.6526577472686768,-0.7809410095214844
1765549752690408000,5.008407958984375,0.34151017665863037,-0.7098564505577087,-0.6375229954719543
1765549752700401000,5.01840087890625,0.21886149048805237,-0.7542399168014526,-0.5042999982833862
1765549752710393900,5.028393798828125,0.14994032680988312,-0.7441152930259705,-0.3758029043674469
1765549752720387800,5.038387939453125,0.11595919728279114,-0.7045719027519226,-0.2707294821739197
1765549752730380800,5.048380859375,0.09649398177862167,-0.6646432876586914,-0.1550438404083252
1765549752740373800,5.058373779296875,0.02383309416472912,-0.6586788892745972,-0.030941324308514595
1765549752750367000,5.068366943359375,-0.12849301099777222,-0.7100343704223633,0.11150806397199631
1765549752760359700,5.078359619140625,-0.36548957228660583,-0.8197265267372131,0.3269364833831787
1765549752770354000,5.08835400390625,-0.6068486571311951,-0.9076731204986572,0.6195287108421326
1765549752780347000,5.098346923828125,-0.777872622013092,-0.9953845143318176,0.9374932646751404
1765549752790339800,5.10833984375,-0.9325705170631409,-1.146948218345642,1.210874080657959
1765549752800332800,5.118332763671875,-1.0780683755874634,-1.3320783376693726,1.4748122692108154
1765549752810326800,5.128326904296875,-1.1853511333465576,-1.4640027284622192,1.7439554929733276
1765549752820320000,5.138320068359375,-1.2631011009216309,-1.554207682609558,2.0259876251220703
1765549752830313000,5.14831298828125,-1.3630526065826416,-1.624190330505371,2.3103349208831787
1765549752840306000,5.158305908203125,-1.4949051141738892,-1.599165439605713,2.5885703563690186
1765549752850299000,5.168298828125,-1.6304150819778442,-1.477133870124817,2.804490566253662
1765549752860292900,5.17829296875,-1.8409498929977417,-1.325986385345459,2.9766921997070312
1765549752870286000,5.1882861328125,-2.097773313522339,-1.225615382194519,3.153989315032959
1765549752880278800,5.19827880859375,-2.3212697505950928,-1.246767282485962,3.3697469234466553
1765549752890272000,5.20827197265625,-2.4438092708587646,-1.4289839267730713,3.6466164588928223
1765549752900265000,5.218264892578125,-2.4482431411743164,-1.6687344312667847,3.9408445358276367
1765549752910258700,5.2282587890625,-2.475346565246582,-1.8266738653182983,4.114583492279053
1765549752920252000,5.238251953125,-2.60961651802063,-1.802185297012329,4.165735244750977
1765549752930244900,5.248244873046875,-2.8196160793304443,-1.5900332927703857,4.124706268310547
1765549752940237800,5.25823779296875,-3.080483913421631,-1.2717334032058716,4.090872764587402
1765549752950230800,5.268230712890625,-3.3594863414764404,-0.9690015316009521,4.133528709411621
1765549752960224800,5.278224853515625,-3.674711227416992,-0.7792028188705444,4.270303249359131
1765549752970218000,5.288218017578125,-4.027108192443848,-0.6316118240356445,4.417669296264648
1765549752980210700,5.298210693359375,-4.389123439788818,-0.47576361894607544,4.50495719909668
1765549752990204000,5.308203857421875,-4.74901819229126,-0.3085630536079407,4.529755115509033
1765549753000198000,5.318197998046875,-5.090538024902344,-0.07602912932634354,4.55899715423584
1765549753010190800,5.32819091796875,-5.311712265014648,0.1678529679775238,4.613402366638184
1765549753020183800,5.338183837890625,-5.468760013580322,0.30825668573379517,4.707621097564697
1765549753030176800,5.3481767578125,-5.558763027191162,0.301650732755661,4.840519905090332
1765549753040170000,5.358169921875,-5.577241897583008,0.18460051715373993,4.9689812660217285
1765549753050164000,5.3681640625,-5.592918872833252,0.10769350081682205,5.051112174987793
1765549753060157000,5.378156982421875,-5.691314697265625,0.1578272432088852,5.047074794769287
1765549753070150000,5.38814990234375,-5.891275882720947,0.31778496503829956,4.9683732986450195
1765549753080142800,5.398142822265625,-6.145147323608398,0.518969714641571,4.9330034255981445
1765549753090135800,5.4081357421875,-6.378100872039795,0.665170431137085,4.977194786071777
1765549753100129800,5.4181298828125,-6.5853657722473145,0.6850573420524597,5.027836322784424
1765549753110123000,5.428123046875,-6.782247066497803,0.6654196977615356,5.075231552124023
1765549753120115700,5.43811572265625,-6.931253910064697,0.7111254334449768,5.043059349060059
1765549753130109000,5.44810888671875,-7.006735801696777,0.8231887221336365,4.935923099517822
1765549753140103000,5.45810302734375,-7.010946273803711,0.9397736191749573,4.826329708099365
1765549753150096000,5.468095947265625,-6.983484268188477,1.0511866807937622,4.702276229858398
1765549753160088800,5.4780888671875,-6.981081962585449,1.1743842363357544,4.529728412628174
1765549753170081800,5.488081787109375,-7.052669525146484,1.3128576278686523,4.355920791625977
1765549753180075000,5.498074951171875,-7.212128639221191,1.3992377519607544,4.2681756019592285
1765549753190069000,5.508069091796875,-7.394927501678467,1.4230402708053589,4.229886054992676
1765549753200061700,5.518061767578125,-7.483057975769043,1.3702113628387451,4.165538787841797
1765549753210055000,5.528054931640625,-7.403637409210205,1.2894563674926758,4.104659557342529
1765549753220048000,5.5380478515625,-7.196134090423584,1.1613514423370361,4.073435306549072
1765549753230040800,5.548040771484375,-6.928847312927246,1.0733715295791626,4.025411128997803
1765549753240034800,5.558034912109375,-6.684291839599609,1.0821354389190674,3.9194140434265137
1765549753250027800,5.56802783203125,-6.620550632476807,1.091778039932251,3.7590389251708984
1765549753260021000,5.57802099609375,-6.677566051483154,1.1513636112213135,3.546893358230591
1765549753270013700,5.588013671875,-6.783732891082764,1.2590349912643433,3.3222146034240723
1765549753280008000,5.598008056640625,-6.905300617218018,1.3637545108795166,3.1408371925354004
1765549753290001000,5.6080009765625,-6.970227241516113,1.4130727052688599,2.9871349334716797
1765549753299994000,5.617994140625,-6.949353218078613,1.3995352983474731,2.793940544128418
1765549753309986800,5.62798681640625,-6.855274200439453,1.3621981143951416,2.6067755222320557
1765549753319980000,5.63797998046875,-6.716801166534424,1.2413654327392578,2.4450082778930664
1765549753329974000,5.64797412109375,-6.619339466094971,1.1213363409042358,2.287154197692871
1765549753339966700,5.657966796875,-6.586483001708984,1.0459877252578735,2.1167542934417725
1765549753349960000,5.6679599609375,-6.615200996398926,1.0321677923202515,1.9377943277359009
1765549753359953000,5.677952880859375,-6.715810298919678,0.9749199151992798,1.8010125160217285
1765549753369945900,5.68794580078125,-6.755848407745361,0.8644972443580627,1.6407774686813354
1765549753379939800,5.69793994140625,-6.684835910797119,0.7483328580856323,1.4382179975509644
1765549753389932800,5.707932861328125,-6.437339782714844,0.6785899996757507,1.2082924842834473
1765549753399926000,5.717926025390625,-6.032026290893555,0.6428236961364746,0.9249195456504822
1765549753409918700,5.727918701171875,-5.574928283691406,0.6547003388404846,0.5725065469741821
1765549753419912000,5.737911865234375,-5.045754909515381,0.7395504713058472,0.26873230934143066
1765549753429906000,5.747906005859375,-4.5521745681762695,0.896261990070343,0.06331279128789902
1765549753439899000,5.75789892578125,-4.177921295166016,0.9400917887687683,-0.09171833842992783
1765549753449891800,5.767891845703125,-3.9002997875213623,0.9171590805053711,-0.21117518842220306
1765549753459884800,5.777884765625,-3.6738016605377197,0.9484472274780273,-0.319919228553772
1765549753469878800,5.787878662109375,-3.4297032356262207,0.9423207640647888,-0.4637066721916199
1765549753479872000,5.7978720703125,-3.13397216796875,0.8861474990844727,-0.6046760082244873
1765549753489864700,5.80786474609375,-2.811439275741577,0.777574360370636,-0.7190614342689514
1765549753499858000,5.81785791015625,-2.4783427715301514,0.5440407395362854,-0.7684977054595947
1765549753509851000,5.827850830078125,-2.1755030155181885,0.2922716438770294,-0.7418119311332703
1765549753519844900,5.837844970703125,-1.9492002725601196,0.2338578999042511,-0.7097280621528625
1765549753529837800,5.847837890625,-1.724044680595398,0.28443971276283264,-0.7034574151039124
1765549753539831000,5.8578310546875,-1.4479652643203735,0.3146522045135498,-0.6704331636428833
1765549753549823700,5.86782373046875,-1.0727753639221191,0.2674087882041931,-0.5891969203948975
1765549753559817000,5.87781689453125,-0.6309790015220642,0.19824010133743286,-0.5159698128700256
1765549753569811000,5.88781103515625,-0.20396989583969116,0.08877360820770264,-0.4228686988353729
1765549753579803000,5.897802978515625,0.13679461181163788,-0.045484598726034164,-0.3472042977809906
1765549753589795800,5.9077958984375,0.40480223298072815,-0.13943888247013092,-0.26615843176841736
1765549753599788800,5.917788818359375,0.6013200879096985,-0.200662299990654,-0.1677495837211609
1765549753609782000,5.927781982421875,0.719702422618866,-0.1810469776391983,-0.04194978252053261
1765549753619776000,5.93777587890625,0.8192532062530518,-0.115041583776474,0.08695733547210693
1765549753629769000,5.94776904296875,0.9280144572257996,-0.0674588680267334,0.1958211362361908
1765549753639762000,5.957761962890625,1.0615793466567993,-0.057890135794878006,0.2991912066936493
1765549753649755000,5.9677548828125,1.2557835578918457,-0.07731278985738754,0.38033875823020935
1765549753659747800,5.977747802734375,1.5153610706329346,-0.12953712046146393,0.44806692004203796
1765549753669741800,5.987741943359375,1.7927409410476685,-0.2241968959569931,0.4999462068080902
1765549753679735000,5.997735107421875,2.0396220684051514,-0.3160293400287628,0.5432180762290955
1765549753689728000,6.00772802734375,2.230032205581665,-0.3707435727119446,0.5812376737594604
1765549753699721000,6.017720947265625,2.3701834678649902,-0.4130641222000122,0.6191741228103638
1765549753709715000,6.02771484375,2.469181776046753,-0.4512660801410675,0.6667438745498657
1765549753719708000,6.0377080078125,2.5293936729431152,-0.46181032061576843,0.6841124892234802
1765549753729700900,6.047700927734375,2.589279890060425,-0.4453219473361969,0.6243054270744324
1765549753739693800,6.05769384765625,2.6466023921966553,-0.37243175506591797,0.4947836399078369
1765549753749687000,6.06768701171875,2.650325298309326,-0.21148908138275146,0.36504244804382324
1765549753759681000,6.077680908203125,2.6041996479034424,-0.04000893980264664,0.2397628128528595
1765549753769673700,6.087673828125,2.5250942707061768,0.09457176923751831,0.19161435961723328
1765549753779667000,6.0976669921875,2.469477891921997,0.07151598483324051,0.15124404430389404
1765549753789660000,6.107659912109375,2.4832382202148438,-0.1648956537246704,0.11252875626087189
1765549753799652900,6.11765283203125,2.5934319496154785,-0.45505663752555847,0.10328998416662216
1765549753809646800,6.127646728515625,2.79032301902771,-0.6613454222679138,0.09154373407363892
1765549753819639800,6.137639892578125,3.016230821609497,-0.7551558017730713,0.010938374325633049
1765549753829633000,6.147633056640625,3.198173761367798,-0.7562248706817627,-0.1732879877090454
1765549753839625700,6.157625732421875,3.2659425735473633,-0.6984161734580994,-0.42087647318840027
1765549753849619000,6.167618896484375,3.2169556617736816,-0.6133291125297546,-0.669951856136322
1765549753859613000,6.177613037109375,3.082310676574707,-0.5490734577178955,-0.835360050201416
1765549753869606100,6.187606201171875,2.9226160049438477,-0.5478979349136353,-0.8866161704063416
1765549753879598800,6.197598876953125,2.7959225177764893,-0.6117823719978333,-0.8497708439826965
1765549753889591800,6.207591796875,2.7321534156799316,-0.7550447583198547,-0.7740029692649841
1765549753899586000,6.2175859375,2.767564535140991,-0.9760173559188843,-0.7701003551483154
1765549753909578800,6.227578857421875,2.928077220916748,-1.2304961681365967,-0.8956748247146606
1765549753919572000,6.237572021484375,3.146101236343384,-1.3827978372573853,-1.1334176063537598
1765549753929565000,6.24756494140625,3.308079957962036,-1.39677095413208,-1.3766143321990967
1765549753939558100,6.25755810546875,3.336097240447998,-1.3236199617385864,-1.5699113607406616
1765549753949551900,6.2675517578125,3.2448692321777344,-1.2490137815475464,-1.6610980033874512
1765549753959544800,6.277544921875,3.0804800987243652,-1.212174892425537,-1.6831134557724
1765549753969538000,6.2875380859375,2.8895325660705566,-1.2077525854110718,-1.7104521989822388
1765549753979530800,6.29753076171875,2.7141685485839844,-1.217590570449829,-1.76004159450531
1765549753989524000,6.30752392578125,2.5939671993255615,-1.2218960523605347,-1.8268815279006958
1765549753999518000,6.31751806640625,2.556689977645874,-1.2268590927124023,-1.8913044929504395
1765549754009511000,6.327510986328125,2.6283977031707764,-1.2751262187957764,-1.9579098224639893
1765549754019503900,6.33750390625,2.77469539642334,-1.2863458395004272,-2.009840726852417
1765549754029496800,6.347496826171875,2.907867193222046,-1.2302987575531006,-2.0301544666290283
1765549754039490800,6.35749072265625,2.9718077182769775,-1.1337261199951172,-2.065995216369629
1765549754049484000,6.367484130859375,3.0092430114746094,-1.0251346826553345,-2.094407558441162
1765549754059476700,6.377476806640625,2.994943857192993,-0.876254141330719,-2.1438963413238525
1765549754069470000,6.387469970703125,2.9378042221069336,-0.7046797871589661,-2.1954596042633057
1765549754079463000,6.397462890625,2.863842487335205,-0.6005091667175293,-2.206228256225586
1765549754089457200,6.40745703125,2.84381365776062,-0.5952135920524597,-2.1256258487701416
1765549754099449900,6.417449951171875,2.903548240661621,-0.771967351436615,-1.9362826347351074
1765549754109443000,6.427443115234375,3.0399093627929688,-1.0884369611740112,-1.6867622137069702
1765549754119436000,6.43743603515625,3.214951515197754,-1.4092175960540771,-1.4645179510116577
1765549754129429800,6.4474296875,3.410757064819336,-1.6286031007766724,-1.3547266721725464
1765549754139423000,6.457423095703125,3.5909392833709717,-1.6763075590133667,-1.4539377689361572
1765549754149416000,6.467416015625,3.6811776161193848,-1.5946354866027832,-1.7394732236862183
1765549754159409000,6.477408935546875,3.6227211952209473,-1.3651573657989502,-2.137493371963501
1765549754169401900,6.48740185546875,3.4003520011901855,-0.9942374229431152,-2.4812591075897217
1765549754179395800,6.497395751953125,3.1002912521362305,-0.6411201357841492,-2.6436266899108887
1765549754189389000,6.50738916015625,2.837390899658203,-0.42481598258018494,-2.663947582244873
1765549754199381800,6.5173818359375,2.6884500980377197,-0.34848499298095703,-2.53802752494812
1765549754209375000,6.527375,2.681460380554199,-0.3868640661239624,-2.2961409091949463
1765549754219368000,6.537367919921875,2.8229734897613525,-0.4164091944694519,-2.151545763015747
1765549754229362000,6.54736181640625,3.035099983215332,-0.41731151938438416,-2.2329390048980713
1765549754239355000,6.55735498046875,3.1714107990264893,-0.4939953684806824,-2.500127077102661
1765549754249347800,6.567347900390625,3.1826252937316895,-0.6255757212638855,-2.814128875732422
1765549754259341000,6.577341064453125,3.091017484664917,-0.7177006006240845,-3.0607481002807617
1765549754269333800,6.587333740234375,2.937084674835205,-0.7445506453514099,-3.15818190574646
1765549754279327700,6.59732763671875,2.790785551071167,-0.7475414276123047,-3.1446988582611084
1765549754289321000,6.607321044921875,2.707258462905884,-0.7696186304092407,-3.067697763442993
1765549754299314000,6.61731396484375,2.7050185203552246,-0.7775958776473999,-3.0357112884521484
1765549754309307000,6.627306884765625,2.786717176437378,-0.8057692050933838,-3.0850422382354736
1765549754319300900,6.63730078125,2.907492160797119,-0.7590293884277344,-3.125901699066162
1765549754329294000,6.647294189453125,2.9817867279052734,-0.6719935536384583,-3.1300342082977295
1765549754339286800,6.657286865234375,2.998504161834717,-0.6151438355445862,-3.1473681926727295
1765549754349280000,6.667280029296875,2.9408340454101562,-0.6243576407432556,-3.1698646545410156
1765549754359273000,6.67727294921875,2.815640449523926,-0.6289641261100769,-3.128598928451538
1765549754369267000,6.687266845703125,2.648427963256836,-0.6255525350570679,-2.9835803508758545
1765549754379260000,6.697260009765625,2.467667579650879,-0.6593195796012878,-2.7453365325927734
1765549754389252900,6.7072529296875,2.337651491165161,-0.7409260272979736,-2.503329038619995
1765549754399246000,6.71724609375,2.3479130268096924,-0.8281650543212891,-2.3793601989746094
1765549754409240000,6.727239990234375,2.468010187149048,-0.8407988548278809,-2.461421251296997
1765549754419232800,6.737232666015625,2.655486822128296,-0.7620052099227905,-2.7259860038757324
1765549754429226000,6.74722607421875,2.7698090076446533,-0.5725515484809875,-3.0685336589813232
1765549754439219000,6.757218994140625,2.781259298324585,-0.3878229856491089,-3.3956196308135986
1765549754449212000,6.7672119140625,2.742558002471924,-0.1971147060394287,-3.6302988529205322
1765549754459206000,6.777205810546875,2.700530767440796,0.08007001876831055,-3.6645736694335938
1765549754469198800,6.78719873046875,2.6493351459503174,0.2757526934146881,-3.5816197395324707
1765549754479192000,6.797192138671875,2.6111083030700684,0.29154762625694275,-3.3820877075195312
1765549754489184800,6.807184814453125,2.5708351135253906,0.24143604934215546,-3.092813730239868
1765549754499178000,6.817177978515625,2.5476951599121094,0.09535793215036392,-2.781529188156128
1765549754509172000,6.827171875,2.5216257572174072,-0.07982650399208069,-2.5364465713500977
1765549754519165000,6.8371650390625,2.465343952178955,-0.2428838610649109,-2.366403579711914
1765549754529158000,6.847157958984375,2.3922770023345947,-0.30375075340270996,-2.282382011413574
1765549754539150800,6.85715087890625,2.2969205379486084,-0.29489201307296753,-2.2747745513916016
1765549754549145000,6.86714501953125,2.213390827178955,-0.24087703227996826,-2.3292298316955566
1765549754559137800,6.8771376953125,2.1623764038085938,-0.181461364030838,-2.398918867111206
1765549754569131000,6.887131103515625,2.106468915939331,-0.1780995875597,-2.382456064224243
1765549754579124000,6.8971240234375,2.0548624992370605,-0.16565942764282227,-2.2687745094299316
1765549754589117400,6.907117431640625,2.049319267272949,-0.2078114151954651,-2.0791749954223633
1765549754599111700,6.917111572265625,2.0987420082092285,-0.21216461062431335,-1.893387794494629
1765549754609104600,6.927104736328125,2.204559087753296,-0.4703846573829651,-1.6647189855575562
1765549754619097600,6.93709765625,2.284290075302124,-0.6841738820075989,-1.3091856241226196
1765549754629090600,6.947090576171875,2.185490608215332,-0.798147976398468,-0.9953177571296692
1765549754639084500,6.95708447265625,1.9267557859420776,-0.9255908727645874,-0.779690146446228
1765549754649077800,6.967077880859375,1.603049397468567,-1.0313358306884766,-0.7043808102607727
1765549754659070700,6.97707080078125,1.2956674098968506,-1.0626062154769897,-0.7546298503875732
1765549754669063700,6.987063720703125,1.0466866493225098,-0.9155288338661194,-0.8527963757514954
1765549754679056600,6.997056640625,0.8197270631790161,-0.5938456058502197,-0.9492549896240234
1765549754689050600,7.007050537109375,0.6017570495605469,-0.2552313208580017,-0.9614120721817017
1765549754699043600,7.017043701171875,0.4207976758480072,0.08024360984563828,-0.9049160480499268
1765549754709036500,7.02703662109375,0.31014004349708557,0.3582133650779724,-0.8897304534912109
1765549754719029800,7.03702978515625,0.2276717871427536,0.5416688919067383,-0.8901115655899048
1765549754729022700,7.047022705078125,0.1504926234483719,0.6695791482925415,-0.8853289484977722
1765549754739016400,7.057016357421875,0.11024560779333115,0.7628307938575745,-0.8539108037948608
1765549754749009700,7.067009765625,0.09162886440753937,0.7979680895805359,-0.7935205698013306
1765549754759002600,7.077002685546875,0.05191633850336075,0.7846288681030273,-0.70000821352005
1765549754768995600,7.08699560546875,-0.03421950340270996,0.746474027633667,-0.6210849285125732
1765549754778989600,7.096989501953125,-0.18310831487178802,0.7212749123573303,-0.5814789533615112
1765549754788982500,7.106982421875,-0.3531075119972229,0.7237661480903625,-0.5770754218101501
1765549754798975700,7.116975830078125,-0.48421651124954224,0.7328454256057739,-0.5811032056808472
1765549754808968400,7.126968505859375,-0.5333477854728699,0.7376170754432678,-0.5966401696205139
1765549754818961700,7.136961669921875,-0.5092102289199829,0.7417148947715759,-0.5748224854469299
1765549754828955600,7.14695556640625,-0.45146414637565613,0.715304434299469,-0.517946720123291
1765549754838948600,7.156948486328125,-0.40042757987976074,0.6782156825065613,-0.4484376907348633
1765549754848941600,7.166941650390625,-0.3545493483543396,0.5358548760414124,-0.3592276871204376
1765549754858934500,7.1769345703125,-0.3541208505630493,0.44739049673080444,-0.2693694233894348
1765549754868928800,7.1869287109375,-0.4099644124507904,0.3667553663253784,-0.11025627702474594
1765549754878921500,7.19692138671875,-0.5049921870231628,0.2912539541721344,0.05311480909585953
1765549754888914700,7.206914794921875,-0.6199138760566711,0.2401575893163681,0.21893897652626038
1765549754898907600,7.21690771484375,-0.7123697400093079,0.12656177580356598,0.37628012895584106
1765549754908901600,7.226901611328125,-0.7380428910255432,-0.0841994658112526,0.4883871376514435
1765549754918894600,7.23689453125,-0.6950509548187256,-0.30884936451911926,0.5924850106239319
1765549754928887600,7.246887451171875,-0.6042715311050415,-0.48320960998535156,0.7053341269493103
1765549754938880800,7.256880859375,-0.500155508518219,-0.5951138138771057,0.8229725956916809
1765549754948873500,7.26687353515625,-0.40354233980178833,-0.6520127058029175,0.9254122972488403
1765549754958867500,7.276867431640625,-0.3332897424697876,-0.6700761318206787,0.9896456599235535
1765549754968860700,7.286860595703125,-0.29059526324272156,-0.6485742926597595,1.0108366012573242
1765549754978853600,7.296853515625,-0.25865039229393005,-0.6323433518409729,0.9918525218963623
1765549754988846600,7.3068466796875,-0.25152966380119324,-0.6161307692527771,0.9215853214263916
1765549754998839600,7.316839599609375,-0.2547323703765869,-0.567493736743927,0.8230441212654114
1765549755008833500,7.32683349609375,-0.2559587359428406,-0.47709977626800537,0.7182731628417969
1765549755018826800,7.33682666015625,-0.2430541068315506,-0.35419487953186035,0.6160344481468201
1765549755028819500,7.3468193359375,-0.2113841027021408,-0.23268380761146545,0.5263183116912842
1765549755038812700,7.356812744140625,-0.15177509188652039,-0.14402078092098236,0.4717448055744171
1765549755048806700,7.366806640625,-0.06512881815433502,-0.07247244566679001,0.41762644052505493
1765549755058799600,7.376799560546875,0.01917780190706253,-0.0034196102060377598,0.34636959433555603
1765549755068792600,7.38679248046875,0.0989990085363388,0.10186178237199783,0.2462616264820099
1765549755078785500,7.39678564453125,0.15796351432800293,0.21089746057987213,0.12492108345031738
1765549755088779800,7.40677978515625,0.19771286845207214,0.2889769673347473,0.010787861421704292
1765549755098772500,7.4167724609375,0.2079836130142212,0.33487364649772644,-0.084941066801548
1765549755108765700,7.426765625,0.18463265895843506,0.35323548316955566,-0.14572030305862427
1765549755118758700,7.436758544921875,0.12023502588272095,0.3412376642227173,-0.15499502420425415
1765549755128751600,7.446751708984375,0.038153067231178284,0.30594682693481445,-0.10578019171953201
1765549755138745600,7.45674560546875,-0.03553340211510658,0.24857699871063232,-0.025411048904061317
1765549755148738600,7.466738525390625,-0.06398417800664902,0.15969601273536682,0.06550052762031555
1765549755158731800,7.476731689453125,-0.054392535239458084,0.06360064446926117,0.14424701035022736
1765549755168724500,7.486724365234375,-0.007912246510386467,-0.017198050394654274,0.2035437822341919
1765549755178718500,7.496718505859375,0.05689284950494766,-0.07655618339776993,0.2380160093307495
1765549755188711700,7.506711669921875,0.1185680478811264,-0.1224522665143013,0.24063053727149963
1765549755198704600,7.51670458984375,0.15176568925380707,-0.15652050077915192,0.2205367088317871
1765549755208697600,7.526697509765625,0.1456451565027237,-0.18866609036922455,0.17460763454437256
1765549755218691600,7.536691650390625,0.12311109155416489,-0.20023007690906525,0.10982677340507507
1765549755228684500,7.5466845703125,0.08806179463863373,-0.18828879296779633,0.04795333743095398
1765549755238677800,7.556677734375,0.051583416759967804,-0.16029497981071472,0.001381309237331152
1765549755248670500,7.56667041015625,0.025482507422566414,-0.1514211893081665,-0.018835650756955147
1765549755258663700,7.57666357421875,-0.003034088760614395,-0.18875259160995483,-0.015646249055862427
1765549755268657700,7.58665771484375,-0.013286961242556572,-0.2426251918077469,-0.0032830035779625177
1765549755278650600,7.596650634765625,-0.019213559105992317,-0.29928290843963623,-0.0017711271066218615
1765549755288643600,7.6066435546875,-0.021752579137682915,-0.37340670824050903,-0.018442833796143532
1765549755298636800,7.61663671875,-0.020411677658557892,-0.4174295663833618,-0.06273919343948364
1765549755308630800,7.626630859375,-0.004939808044582605,-0.4124470055103302,-0.12584364414215088
1765549755318623500,7.63662353515625,0.01802968978881836,-0.37283727526664734,-0.19358514249324799
1765549755328616700,7.64661669921875,0.05136953666806221,-0.27799439430236816,-0.29543399810791016
1765549755338609700,7.656609619140625,0.07316529750823975,-0.14706631004810333,-0.41840535402297974
1765549755348602600,7.6666025390625,0.07163377851247787,-0.05304860696196556,-0.5186336040496826
1765549755358596600,7.6765966796875,0.06331459432840347,-0.03276357427239418,-0.5994251370429993
1765549755368589600,7.686589599609375,0.06368313729763031,-0.06349584460258484,-0.6526275277137756
1765549755378582800,7.696582763671875,0.076146200299263,-0.15792754292488098,-0.7033677101135254
1765549755388575500,7.706575439453125,0.1007729321718216,-0.30138444900512695,-0.7506555318832397
1765549755398569500,7.716569580078125,0.13147491216659546,-0.47528591752052307,-0.8161426782608032
1765549755408562700,7.726562744140625,0.13197779655456543,-0.6257725358009338,-0.8907676339149475
1765549755418555600,7.7365556640625,0.10207289457321167,-0.696609377861023,-0.9756506085395813
1765549755428548600,7.746548583984375,0.08848939836025238,-0.6864765286445618,-1.078067421913147
1765549755438542600,7.75654248046875,0.10560713708400726,-0.6287828683853149,-1.2054909467697144
1765549755448535800,7.766535888671875,0.136970654129982,-0.5382261276245117,-1.334077000617981
1765549755458528500,7.776528564453125,0.17679104208946228,-0.4799090027809143,-1.4658957719802856
1765549755468521500,7.786521484375,0.22206640243530273,-0.4998595714569092,-1.5875673294067383
1765549755478514700,7.7965146484375,0.28977060317993164,-0.5905516743659973,-1.655651569366455
1765549755488508700,7.8065087890625,0.3867911696434021,-0.6652315258979797,-1.6699239015579224
1765549755498501600,7.816501708984375,0.49630728363990784,-0.7157580852508545,-1.675931453704834
1765549755508494600,7.82649462890625,0.6201034188270569,-0.7498946189880371,-1.7072833776474
1765549755518487800,7.83648779296875,0.7395060062408447,-0.748262882232666,-1.7801183462142944
1765549755528481800,7.846481689453125,0.863161563873291,-0.7133545279502869,-1.8572052717208862
1765549755538474500,7.856474609375,0.9934180974960327,-0.6779283881187439,-1.9124610424041748
1765549755548467700,7.8664677734375,1.0998620986938477,-0.672400951385498,-1.9327995777130127
1765549755558460700,7.876460693359375,1.1590162515640259,-0.7140879034996033,-1.8998602628707886
1765549755568454700,7.88645458984375,1.195332407951355,-0.7809162735939026,-1.8223387002944946
1765549755578447600,7.896447509765625,1.2455239295959473,-0.8050333261489868,-1.7452188730239868
1765549755588440300,7.9064404296875,1.3265339136123657,-0.8017703890800476,-1.7349586486816406
1765549755598433500,7.91643359375,1.3939743041992188,-0.7688135504722595,-1.791664481163025
1765549755608427500,7.926427490234375,1.4125157594680786,-0.7381996512413025,-1.8654941320419312
1765549755618420500,7.93642041015625,1.4098973274230957,-0.7364749908447266,-1.8973926305770874
1765549755628413400,7.946413330078125,1.4043256044387817,-0.7919811010360718,-1.878082275390625
1765549755638406400,7.956406494140625,1.4065883159637451,-0.8718623518943787,-1.831152319908142
1765549755648399400,7.9663994140625,1.4290390014648438,-0.9265955686569214,-1.7722043991088867
1765549755658393300,7.976393310546875,1.4551454782485962,-0.9237561225891113,-1.7209348678588867
1765549755668386600,7.986386474609375,1.4872047901153564,-0.8859979510307312,-1.7128574848175049
1765549755678379300,7.996379150390625,1.525990605354309,-0.8259524703025818,-1.7531918287277222
1765549755688372500,8.00637255859375,1.5703855752944946,-0.7531086802482605,-1.8188505172729492
1765549755698366500,8.016366455078124,1.6301923990249634,-0.6756570339202881,-1.8957077264785767
1765549755708359400,8.026359375,1.7048583030700684,-0.6310105323791504,-1.9517979621887207
1765549755718352400,8.036352294921874,1.7933865785598755,-0.6040902733802795,-1.9755594730377197
1765549755728345300,8.046345458984375,1.8569046258926392,-0.5952113270759583,-1.9754149913787842
1765549755738339300,8.05633935546875,1.8525360822677612,-0.5796558260917664,-1.964682698249817
1765549755748332500,8.06633251953125,1.7849637269973755,-0.5338180661201477,-1.9472038745880127
1765549755758325200,8.0763251953125,1.666738510131836,-0.46771708130836487,-1.9161354303359985
1765549755768318500,8.086318359375,1.5252470970153809,-0.4154113531112671,-1.8822301626205444
1765549755778311400,8.0963115234375,1.4099348783493042,-0.36074331402778625,-1.8546271324157715
1765549755788305400,8.106305419921876,1.3539531230926514,-0.290736585855484,-1.8298419713974
1765549755798298400,8.11629833984375,1.3379234075546265,-0.22388377785682678,-1.7574207782745361
1765549755808291300,8.126291259765624,1.3578156232833862,-0.1712614893913269,-1.6491613388061523
1765549755818284500,8.136284423828124,1.360894799232483,-0.12743917107582092,-1.4881876707077026
1765549755828278300,8.1462783203125,1.3328019380569458,-0.10181975364685059,-1.3019866943359375
1765549755838271500,8.156271484375,1.2782728672027588,-0.16472920775413513,-1.1012684106826782
1765549755848264400,8.166264404296875,1.192397117614746,-0.31423240900039673,-0.9048569798469543
1765549755858257400,8.17625732421875,1.0590749979019165,-0.48491227626800537,-0.7450073957443237
1765549755868251400,8.18625146484375,0.8547323346138,-0.6411777138710022,-0.5820680260658264
1765549755878244400,8.196244384765626,0.6177861094474792,-0.7689977288246155,-0.4195353090763092
1765549755888237600,8.206237548828126,0.3456689715385437,-0.8365117907524109,-0.24104806780815125
1765549755898230300,8.216230224609374,0.046133920550346375,-0.8338241577148438,-0.05289945378899574
1765549755908224300,8.226224365234375,-0.2514602839946747,-0.820345938205719,0.1194770559668541
1765549755918217500,8.236217529296875,-0.5137318968772888,-0.8715910315513611,0.3134196102619171
1765549755928210400,8.24621044921875,-0.7145849466323853,-0.9723372459411621,0.5725517868995667
1765549755938203400,8.256203369140625,-0.8479803204536438,-1.0772026777267456,0.8710899949073792
1765549755948197400,8.266197265625,-0.9655284881591797,-1.221910834312439,1.15461003780365
1765549755958190300,8.2761904296875,-1.101488709449768,-1.3920314311981201,1.417087197303772
1765549755968183600,8.28618359375,-1.2480552196502686,-1.544583797454834,1.6741384267807007
1765549755978176300,8.29617626953125,-1.4431160688400269,-1.6927168369293213,1.934953212738037
1765549755988169500,8.30616943359375,-1.6644423007965088,-1.8677470684051514,2.1740689277648926
1765549755998163500,8.31616357421875,-1.8548567295074463,-1.9784296751022339,2.3992960453033447
1765549756008156400,8.326156494140625,-1.995134949684143,-1.9859219789505005,2.5957682132720947
1765549756018149400,8.3361494140625,-2.1394801139831543,-1.9233262538909912,2.7734575271606445
1765549756028142300,8.346142333984375,-2.249699592590332,-1.8413163423538208,2.9581100940704346
1765549756038136600,8.356136474609375,-2.374032735824585,-1.7830909490585327,3.203138589859009
1765549756048129300,8.36612939453125,-2.5876619815826416,-1.8251372575759888,3.4697105884552
1765549756058122500,8.37612255859375,-2.8732330799102783,-1.9133931398391724,3.7211873531341553
1765549756068115500,8.386115478515626,-3.121469736099243,-1.9654395580291748,3.905460834503174
1765549756078109400,8.396109375,-3.3009891510009766,-1.8894909620285034,3.954571485519409
1765549756088102400,8.406102294921874,-3.4645588397979736,-1.6974180936813354,3.911836862564087
1765549756098095400,8.416095458984374,-3.660212278366089,-1.4546277523040771,3.895108222961426
1765549756108088600,8.426088623046875,-3.880506992340088,-1.1600539684295654,3.9971814155578613
1765549756118082600,8.43608251953125,-4.143619060516357,-0.8696717023849487,4.154906749725342
1765549756128075300,8.4460751953125,-4.485034942626953,-0.6264398694038391,4.275903701782227
1765549756138068500,8.456068359375,-4.9493184089660645,-0.37193354964256287,4.3409929275512695
1765549756148061400,8.4660615234375,-5.532378196716309,-0.12812501192092896,4.378798484802246
1765549756158055400,8.476055419921876,-6.086516857147217,0.06159006431698799,4.404829978942871
1765549756168048400,8.48604833984375,-6.4693474769592285,0.23380625247955322,4.50172233581543
1765549756178041300,8.496041259765626,-6.633171081542969,0.33210164308547974,4.624914646148682
1765549756188034600,8.50603466796875,-6.5062432289123535,0.4763399362564087,4.743578910827637
1765549756198028300,8.5160283203125,-6.628964900970459,0.3779100477695465,4.770270824432373
1765549756208021500,8.526021484375,-6.815428256988525,0.46258825063705444,4.879903316497803
1765549756218014500,8.536014404296875,-7.012094974517822,0.7049574851989746,5.064080238342285
1765549756228007400,8.54600732421875,-7.224277019500732,0.9175001382827759,5.186021327972412
1765549756238000400,8.55600048828125,-7.387391567230225,1.0322943925857544,5.222611904144287
1765549756247994400,8.565994384765625,-7.514496803283691,1.1072901487350464,5.18910551071167
1765549756257987600,8.575987548828126,-7.599330902099609,1.2116479873657227,5.105165004730225
1765549756267980300,8.585980224609376,-7.687204360961914,1.3488138914108276,4.962472438812256
1765549756277973500,8.595973388671876,-7.782409191131592,1.5248788595199585,4.813820838928223
1765549756287967500,8.605967529296874,-7.85016393661499,1.6991679668426514,4.711670398712158
1765549756297960400,8.61596044921875,-7.895482540130615,1.8532614707946777,4.630767345428467
1765549756307953400,8.625953369140625,-7.871230125427246,1.9250311851501465,4.569863796234131
1765549756317946400,8.6359462890625,-7.771066665649414,1.935896396636963,4.527226448059082
1765549756327940400,8.6459404296875,-7.73984956741333,1.9587900638580322,4.472476959228516
1765549756337933300,8.655933349609375,-7.747712135314941,2.04510498046875,4.3025641441345215
1765549756347926300,8.66592626953125,-7.7247209548950195,2.1357924938201904,4.116610050201416
1765549756357919500,8.67591943359375,-7.595834255218506,2.0769996643066406,3.9596188068389893
1765549756367913500,8.68591357421875,-7.382498741149902,1.9162042140960693,3.885833263397217
1765549756377906400,8.695906494140624,-7.183032512664795,1.7120933532714844,3.8578131198883057
1765549756387899400,8.7058994140625,-6.998117446899414,1.5735868215560913,3.792762517929077
1765549756397892400,8.715892333984375,-6.829780578613281,1.5642260313034058,3.59283447265625
1765549756407886600,8.725886474609375,-6.715714454650879,1.717671275138855,3.2607338428497314
1765549756417879300,8.73587939453125,-6.70643949508667,1.9518235921859741,2.9232115745544434
1765549756427872500,8.74587255859375,-6.7577128410339355,2.1295385360717773,2.682767629623413
1765549756437865500,8.755865478515625,-6.765450954437256,2.1960127353668213,2.5564661026000977
1765549756447858400,8.7658583984375,-6.7028608322143555,2.1713712215423584,2.5110998153686523
1765549756457852400,8.775852294921876,-6.582391738891602,2.16911244392395,2.449751377105713
1765549756467845400,8.785845458984374,-6.386255264282227,2.2605888843536377,2.323010206222534
1765549756477838600,8.795838623046874,-6.1788458824157715,2.369779586791992,2.0544252395629883
1765549756487831300,8.805831298828124,-6.064132213592529,2.420722723007202,1.6617351770401
1765549756497825300,8.8158251953125,-6.069432735443115,2.377310037612915,1.2365896701812744
1765549756507818500,8.825818603515625,-6.041808605194092,2.2694733142852783,0.8701993227005005
1765549756517811200,8.835811279296875,-5.9570136070251465,2.0770657062530518,0.5711287260055542
1765549756527804400,8.845804443359375,-5.830662727355957,1.8142874240875244,0.30389559268951416
1765549756537798400,8.85579833984375,-5.615667819976807,1.547048807144165,0.053185056895017624
1765549756547791400,8.865791259765626,-5.371659278869629,1.4132760763168335,-0.17001153528690338
1765549756557784300,8.875784423828126,-5.237579822540283,1.5297824144363403,-0.267341285943985
1765549756567777300,8.88577734375,-5.164525032043457,1.7647768259048462,-0.25844836235046387
1765549756577771500,8.895771484375,-4.982080459594727,1.8807446956634521,-0.27366459369659424
1765549756587764500,8.905764404296875,-4.742530345916748,1.9026353359222412,-0.32605165243148804
1765549756597757700,8.9157578125,-4.423800468444824,1.8941293954849243,-0.47154518961906433
1765549756607750400,8.92575048828125,-4.020509719848633,1.8434160947799683,-0.6843937039375305
1765549756617744400,8.935744384765625,-3.574021816253662,1.787982702255249,-0.8761719465255737
1765549756627737600,8.945737548828125,-3.1269314289093018,1.6894363164901733,-1.0195494890213013
1765549756637730600,8.95573046875,-2.7995100021362305,1.6365712881088257,-1.1180057525634766
1765549756647723500,8.9657236328125,-2.586522340774536,1.6373257637023926,-1.1426963806152344
1765549756657717500,8.975717529296874,-2.411356210708618,1.5334552526474,-1.0369044542312622
1765549756667710500,8.98571044921875,-2.229285478591919,1.4034842252731323,-0.8606531620025635
1765549756677703400,8.995703369140625,-2.0623257160186768,1.290364146232605,-0.6891195178031921
1765549756687696400,9.0056962890625,-1.8955199718475342,1.1480352878570557,-0.5246334671974182
1765549756697689600,9.015689697265625,-1.708145260810852,1.0338025093078613,-0.3791269063949585
1765549756707683600,9.02568359375,-1.5290133953094482,0.9487603306770325,-0.2787512242794037
1765549756717676300,9.03567626953125,-1.3273268938064575,0.9325049519538879,-0.24756881594657898
1765549756727669500,9.04566943359375,-1.1262922286987305,0.9510824680328369,-0.2380458265542984
1765549756737662500,9.055662353515626,-0.8963786959648132,0.8488900661468506,-0.2611250579357147
1765549756747656700,9.06565673828125,-0.6065824627876282,0.7574686408042908,-0.2534443736076355
1765549756757649400,9.0756494140625,-0.2878178060054779,0.6484715938568115,-0.20727981626987457
1765549756767642600,9.085642578125,0.048414573073387146,0.45891863107681274,-0.11257439851760864
1765549756777635600,9.095635498046875,0.3525225520133972,0.2544315457344055,0.00594372721388936
1765549756787629600,9.105629638671875,0.5739330053329468,0.06600107252597809,0.0979059711098671
1765549756797622500,9.11562255859375,0.7621433734893799,-0.07301513105630875,0.15982554852962494
1765549756807615500,9.125615478515625,0.9541572332382202,-0.1905808299779892,0.20294387638568878
1765549756817608700,9.135608642578125,1.136258840560913,-0.26539167761802673,0.23806938529014587
1765549756827602400,9.1456025390625,1.3020180463790894,-0.26747727394104004,0.2423037439584732
1765549756837595400,9.155595458984376,1.4381377696990967,-0.23580536246299744,0.22946012020111084
1765549756847588600,9.165588623046874,1.5442208051681519,-0.21126332879066467,0.21110394597053528
1765549756857581600,9.17558154296875,1.606925129890442,-0.2641952633857727,0.17173364758491516
1765549756867574500,9.185574462890624,1.6594377756118774,-0.3034413158893585,0.1295052319765091
1765549756877568500,9.195568603515625,1.7130991220474243,-0.31864237785339355,0.07921036332845688
1765549756887561500,9.2055615234375,1.7891100645065308,-0.3434552252292633,0.029996758326888084
1765549756897554400,9.215554443359375,1.892741322517395,-0.385996550321579,0.00009878003038465977
1765549756907547400,9.22554736328125,2.0072457790374756,-0.43949732184410095,-0.00022400234593078494
1765549756917541400,9.235541259765625,2.1035501956939697,-0.48569196462631226,0.013061976060271263
1765549756927534600,9.24553466796875,2.149444580078125,-0.5575037002563477,-0.010360892862081528
1765549756937527300,9.25552734375,2.1314735412597656,-0.6538385152816772,-0.07260376214981079
1765549756947520500,9.2655205078125,2.081286907196045,-0.7545906901359558,-0.10392972826957703
1765549756957514500,9.275514404296874,2.0474557876586914,-0.8434246778488159,-0.1956697702407837
1765549756967507700,9.2855078125,2.0672929286956787,-0.8301675915718079,-0.31012576818466187
1765549756977500400,9.29550048828125,2.0692052841186523,-0.7433440685272217,-0.4392262101173401
1765549756987493600,9.30549365234375,2.054337978363037,-0.6349796056747437,-0.5658122897148132
1765549756997487600,9.315487548828125,2.0410337448120117,-0.5061308145523071,-0.6974736452102661
1765549757007480300,9.325480224609375,2.0527446269989014,-0.4123484790325165,-0.8260314464569092
1765549757017473500,9.3354736328125,2.1259210109710693,-0.37898626923561096,-0.9879297614097595
1765549757027466500,9.345466552734376,2.2574431896209717,-0.3968382775783539,-1.1580655574798584
1765549757037460500,9.35546044921875,2.3924548625946045,-0.467888206243515,-1.2883164882659912
1765549757047453400,9.365453369140624,2.511124610900879,-0.5530518293380737,-1.367930293083191
1765549757057446400,9.3754462890625,2.6266233921051025,-0.6490164399147034,-1.4381752014160156
1765549757067439600,9.385439697265625,2.7579402923583984,-0.7566744685173035,-1.5134750604629517
1765549757077433600,9.39543359375,2.8647382259368896,-0.8789620399475098,-1.5439499616622925
1765549757087426300,9.40542626953125,2.925891876220703,-1.0237373113632202,-1.5124685764312744
1765549757097419500,9.41541943359375,2.9300732612609863,-1.2009738683700562,-1.461082100868225
1765549757107412500,9.42541259765625,2.8972771167755127,-1.3745909929275513,-1.4264333248138428
1765549757117406700,9.43540673828125,2.85980224609375,-1.4791357517242432,-1.4005223512649536
1765549757127399400,9.4453994140625,2.8491528034210205,-1.5472309589385986,-1.436995506286621
1765549757137392600,9.455392578125,2.8897321224212646,-1.5544785261154175,-1.570768117904663
1765549757147385600,9.465385498046874,2.962686538696289,-1.4851901531219482,-1.734709620475769
1765549757157379300,9.47537939453125,3.0216684341430664,-1.426033854484558,-1.7830201387405396
1765549757167372500,9.48537255859375,3.075876474380493,-1.4084184169769287,-1.6990296840667725
1765549757177365500,9.495365478515625,3.1760363578796387,-1.397928237915039,-1.5770936012268066
1765549757187358700,9.505358642578125,3.2905147075653076,-1.4198580980300903,-1.5054547786712646
1765549757197352400,9.5153525390625,3.3630480766296387,-1.5047874450683594,-1.433835506439209
1765549757207345400,9.525345458984376,3.432979106903076,-1.643723487854004,-1.386335015296936
1765549757217338600,9.535338623046876,3.5362160205841064,-1.7916653156280518,-1.448240041732788
1765549757227331300,9.545331298828126,3.608454465866089,-1.877204418182373,-1.5585590600967407
1765549757237324500,9.555324462890624,3.6610629558563232,-1.8850713968276978,-1.642820119857788
1765549757247318500,9.565318603515625,3.713414192199707,-1.8385496139526367,-1.7175589799880981
1765549757257311500,9.5753115234375,3.78560471534729,-1.7616194486618042,-1.8086771965026855
1765549757267304400,9.585304443359375,3.863957643508911,-1.6265357732772827,-2.0075976848602295
1765549757277297400,9.59529736328125,3.921964645385742,-1.4673128128051758,-2.2797393798828125
1765549757287291600,9.605291748046875,3.968857526779175,-1.3188607692718506,-2.5788369178771973
1765549757297284600,9.61528466796875,4.009922504425049,-1.2229171991348267,-2.851722240447998
1765549757307277600,9.625277587890626,4.049511909484863,-1.2687162160873413,-3.0526721477508545
1765549757317270500,9.6352705078125,4.066427707672119,-1.3826632499694824,-3.2172062397003174
1765549757327264500,9.645264404296874,4.022110462188721,-1.5244925022125244,-3.1769766807556152
1765549757337257500,9.655257568359374,3.9320614337921143,-1.7477953433990479,-2.922870397567749
1765549757347250400,9.66525048828125,3.8647303581237793,-1.8955926895141602,-2.6530776023864746
1765549757357243600,9.67524365234375,3.8826491832733154,-1.9368120431900024,-2.5129446983337402
1765549757367237600,9.685237548828125,3.9934654235839844,-1.9166929721832275,-2.539520263671875
1765549757377230300,9.695230224609375,4.1264848709106445,-1.872654914855957,-2.699427366256714
1765549757387223600,9.7052236328125,4.219325065612793,-1.7807592153549194,-2.9728140830993652
1765549757397216500,9.715216552734375,4.2474799156188965,-1.7061344385147095,-3.2563297748565674
1765549757407210500,9.72521044921875,4.213045120239258,-1.5884121656417847,-3.494777202606201
1765549757417203500,9.735203369140624,4.161944389343262,-1.3428559303283691,-3.660034656524658
1765549757427196400,9.745196533203124,4.121686935424805,-1.1073756217956543,-3.7400119304656982
1765549757437189600,9.755189697265624,4.043088436126709,-0.973655104637146,-3.712573528289795
1765549757447183600,9.76518359375,3.9290030002593994,-0.8745326399803162,-3.574155569076538
1765549757457176300,9.77517626953125,3.80129075050354,-0.858181893825531,-3.382237434387207
1765549757467169500,9.78516943359375,3.6819844245910645,-0.9463860988616943,-3.1553823947906494
1765549757477162500,9.79516259765625,3.6258668899536133,-1.0564147233963013,-2.951183319091797
1765549757487156500,9.805156494140626,3.6315901279449463,-1.1356745958328247,-2.78625226020813
1765549757497149400,9.8151494140625,3.6489992141723633,-1.1202104091644287,-2.6576485633850098
1765549757507142700,9.825142578125,3.688669204711914,-1.0204856395721436,-2.553274393081665
1765549757517135400,9.83513525390625,3.7236886024475098,-0.8720248341560364,-2.53265118598938
1765549757527129300,9.84512939453125,3.7176880836486816,-0.6772485971450806,-2.6307082176208496
1765549757537122600,9.85512255859375,3.6386899948120117,-0.40630146861076355,-2.8072524070739746
1765549757547115500,9.865115478515625,3.444481372833252,-0.11764451861381531,-3.0120861530303955
1765549757557108500,9.8751083984375,3.1168720722198486,0.1356615126132965,-3.1772148609161377
1765549757567102500,9.8851025390625,2.686246156692505,0.32818278670310974,-3.2747507095336914
1765549757577095400,9.895095458984375,2.235346794128418,0.4092957377433777,-3.2388949394226074
1765549757587088100,9.905088134765625,1.8664575815200806,0.3717009425163269,-3.093348979949951
1765549757597081000,9.9150810546875,1.600973129272461,0.2793087065219879,-2.892835855484009
1765549757607075300,9.925075439453124,1.4097800254821777,0.1363556981086731,-2.709404468536377
1765549757617068000,9.935068115234374,1.2969459295272827,0.026914972811937332,-2.567817449569702
1765549757627061200,9.945061279296874,1.2364529371261597,-0.06802903860807419,-2.46673321723938
1765549757637054200,9.95505419921875,1.1681729555130005,-0.13834607601165771,-2.3512701988220215
1765549757647048200,9.965048095703125,1.0739054679870605,-0.12800908088684082,-2.1751270294189453
1765549757657041200,9.975041259765625,1.0139169692993164,-0.05543633922934532,-2.0110607147216797
1765549757667034000,9.9850341796875,0.9772725105285645,-0.04777003824710846,-1.9130445718765259
1765549757677027300,9.99502734375,0.9305835962295532,-0.14316554367542267,-1.814905047416687
1765549757687021300,10.005021240234376,0.9126948118209839,-0.2099437713623047,-1.6672213077545166
1765549757697014000,10.015013916015626,0.875697910785675,-0.179694265127182,-1.4927566051483154
1765549757707007200,10.02500732421875,0.8191365599632263,-0.052650339901447296,-1.322655200958252
1765549757717000200,10.035000244140624,0.710370659828186,0.14816932380199432,-1.136834979057312
1765549757726994200,10.044994140625,0.5340227484703064,0.3028494119644165,-1.0078176259994507
1765549757736987100,10.054987060546875,0.3452978730201721,0.3911539912223816,-0.842123806476593
1765549757746980000,10.06497998046875,0.16292712092399597,0.48352524638175964,-0.6735466718673706
1765549757756973300,10.074973388671875,-0.04149898886680603,0.5400699973106384,-0.5455136299133301
1765549757766967000,10.084967041015625,-0.26495200395584106,0.6153125166893005,-0.44971153140068054
1765549757776960300,10.094960205078126,-0.5318925976753235,0.6534974575042725,-0.3649742603302002
1765549757786953200,10.104953125,-0.7695553302764893,0.7613457441329956,-0.2759518623352051
1765549757796946200,10.1149462890625,-0.9712144136428833,0.9595698714256287,-0.2244279831647873
1765549757806940200,10.124940185546874,-1.1408915519714355,1.1321451663970947,-0.2581288814544678
1765549757816933000,10.13493310546875,-1.2637662887573242,1.3229542970657349,-0.3162315785884857
1765549757826926300,10.14492626953125,-1.355887770652771,1.5226221084594727,-0.35889410972595215
1765549757836919000,10.1549189453125,-1.4146274328231812,1.7764906883239746,-0.3550815284252167
1765549757846913000,10.1649130859375,-1.4493716955184937,2.10090708732605,-0.33713966608047485
1765549757856906200,10.17490625,-1.4359538555145264,2.5078227519989014,-0.34927406907081604
1765549757866899200,10.184899169921875,-1.608964204788208,2.7738873958587646,-0.3966643810272217
1765549757876892200,10.19489208984375,-1.8555347919464111,3.0681633949279785,-0.30691877007484436
1765549757886886100,10.20488623046875,-2.104088544845581,3.1432149410247803,-0.10023832321166992
1765549757896879000,10.214879150390624,-2.306516647338867,3.129856824874878,0.23626482486724854
1765549757906872300,10.224872314453124,-2.4328043460845947,3.0453763008117676,0.587190568447113
1765549757916865000,10.234864990234374,-2.4679832458496094,2.8964881896972656,0.8484623432159424
1765549757926858200,10.244858154296875,-2.4031100273132324,3.013465404510498,1.0171228647232056
1765549757936852200,10.254852294921875,-2.334266424179077,3.368964433670044,1.1519083976745605
1765549757946845000,10.264844970703125,-2.339484214782715,3.725985527038574,1.3277331590652466
1765549757956838100,10.274838134765625,-2.5166196823120117,4.124387741088867,1.668913722038269
1765549757966831000,10.2848310546875,-2.7671048641204834,4.44054651260376,2.076214551925659
1765549757976825300,10.294825439453126,-2.8418118953704834,4.658115386962891,2.383338212966919
1765549757986818000,10.304818115234376,-2.682485580444336,4.665894985198975,2.52018666267395
1765549757996811300,10.314811279296874,-2.2936904430389404,4.4993815422058105,2.4006223678588867
1765549758006804200,10.32480419921875,-1.7166733741760254,3.968454122543335,2.125304698944092
1765549758016798200,10.334798095703125,-1.151557207107544,3.140979528427124,1.8921172618865967
1765549758026791200,10.344791259765625,-0.6590821743011475,2.5195469856262207,1.7080880403518677
1765549758036784000,10.3547841796875,-0.27861493825912476,2.054870843887329,1.5799874067306519
1765549758046777300,10.36477734375,-0.08969680964946747,1.5558011531829834,1.5238925218582153
1765549758056771300,10.374771240234375,-0.08206339180469513,1.2886024713516235,1.523586630821228
1765549758066764000,10.384763916015626,-0.1359468400478363,1.2254759073257446,1.6093412637710571
1765549758076757200,10.39475732421875,-0.16364610195159912,1.2792102098464966,1.712601661682129
1765549758086750200,10.404750244140626,-0.07580283284187317,1.847760796546936,1.7861486673355103
1765549758096744000,10.414743896484374,0.08788996189832687,2.8203823566436768,1.7941490411758423
1765549758106737200,10.424737060546875,0.22792476415634155,3.9053852558135986,1.6086474657058716
1765549758116730000,10.434730224609375,0.3130077123641968,4.776580333709717,1.1434364318847656
1765549758126723000,10.44472314453125,0.1890334039926529,3.0646045207977295,-0.5013507008552551
1765549758136717000,10.454717041015625,0.12031479179859161,1.6090421676635742,-1.3953512907028198
1765549758146710300,10.464710205078125,0.173849418759346,1.7284907102584839,-1.2514660358428955
1765549758156703200,10.474703125,0.10238322615623474,2.155531644821167,-0.8303468823432922
1765549758166696200,10.4846962890625,-0.08790160715579987,2.6041934490203857,-0.5379830002784729
1765549758176690200,10.494690185546874,-0.3065039813518524,3.08748722076416,-0.3871050775051117
1765549758186683100,10.50468310546875,-0.5147775411605835,3.5323805809020996,-0.3064262568950653
1765549758196676400,10.51467626953125,-0.49586111307144165,3.7880563735961914,-0.17489060759544373
1765549758206669000,10.5246689453125,-0.30368879437446594,3.611179828643799,-0.04893115535378456
1765549758216662300,10.534662353515625,-0.11870668828487396,3.0379390716552734,0.04156758636236191
1765549758226656300,10.54465625,-0.01728036068379879,2.257401704788208,0.14037542045116425
1765549758236649200,10.554649169921875,0.041958462446928024,1.518630027770996,0.26087677478790283
1765549758246642200,10.56464208984375,0.054039061069488525,0.8770465850830078,0.36899590492248535
1765549758256635100,10.57463525390625,0.033163607120513916,0.5027462244033813,0.5087559223175049
1765549758266629000,10.584629150390626,0.02568335272371769,0.17492541670799255,0.6709117293357849
1765549758276622000,10.5946220703125,0.06524727493524551,-0.40124815702438354,0.8344833254814148
1765549758286615000,10.604614990234374,0.14891557395458221,0.5710654854774475,0.6100201606750488
1765549758296608300,10.614608154296874,0.37460172176361084,1.268087387084961,0.5076383948326111
1765549758306602200,10.624602294921875,0.557428240776062,1.49333655834198,0.42057469487190247
1765549758316595200,10.63459521484375,0.5731257200241089,1.4586087465286255,0.2960423529148102
1765549758326588200,10.644588134765625,0.5734957456588745,1.5007202625274658,0.41089415550231934
1765549758336581000,10.6545810546875,0.5290036797523499,1.6038870811462402,0.7421911358833313
1765549758346575400,10.664575439453126,0.4571302831172943,1.7228261232376099,1.183903694152832
1765549758356568000,10.674568115234376,0.40085503458976746,1.8929283618927002,1.605835199356079
1765549758366561300,10.684561279296876,0.3402760624885559,2.0745604038238525,1.8668146133422852
1765549758376554200,10.69455419921875,0.3531060814857483,2.3204219341278076,1.8977168798446655
1765549758386548200,10.70454833984375,0.3883604407310486,2.3984127044677734,1.6558899879455566
1765549758396541200,10.714541259765625,0.4046400785446167,2.320451498031616,1.224900722503662
1765549758406534100,10.7245341796875,0.3826146423816681,2.1695659160614014,0.7700629830360413
1765549758416527400,10.73452734375,0.3738453686237335,1.8098937273025513,0.41412702202796936
1765549758426520000,10.74452001953125,0.4177194833755493,1.404197096824646,0.23490025103092194
1765549758436514000,10.75451416015625,0.4694223403930664,1.3121423721313477,0.25497332215309143
1765549758446507300,10.76450732421875,0.4530351459980011,1.3818371295928955,0.3916736841201782
1765549758456500000,10.7745,0.4165668785572052,1.437341332435608,0.5202996134757996
1765549758466493200,10.7844931640625,0.40832656621932983,1.4466487169265747,0.4996694326400757
1765549758476487200,10.794487060546874,0.40496137738227844,1.3599644899368286,0.30808988213539124
1765549758486480100,10.804480224609375,0.38168859481811523,1.136623501777649,0.025935808196663857
1765549758496473000,10.81447314453125,0.3194747567176819,0.972694456577301,-0.18518388271331787
1765549758506466000,10.824466064453125,0.24804937839508057,0.9099057912826538,-0.2154044210910797
1765549758516460300,10.834460205078125,0.22518427670001984,0.8979077339172363,-0.054403018206357956
1765549758526453200,10.844453369140625,0.26705196499824524,0.8538728952407837,0.19192074239253998
1765549758536446200,10.8544462890625,0.33881378173828125,0.8135430812835693,0.42875778675079346
1765549758546439200,10.864439208984376,0.39015820622444153,0.7583311200141907,0.5930243134498596
1765549758556433200,10.87443310546875,0.41093674302101135,0.6680140495300293,0.6593559384346008
1765549758566426400,10.88442626953125,0.3846096396446228,0.5455158352851868,0.6306946873664856
1765549758576419000,10.894419189453124,0.31972622871398926,0.39168581366539,0.5486453175544739
1765549758586412500,10.90441259765625,0.25357499718666077,0.25941067934036255,0.490865021944046
1765549758596405500,10.914405517578125,0.21560578048229218,0.20396341383457184,0.475473552942276
1765549758606399500,10.9243994140625,0.18160691857337952,0.19838304817676544,0.5060139298439026
1765549758616392700,10.934392822265625,0.15499714016914368,0.21234652400016785,0.5632684230804443
1765549758626385700,10.9443857421875,0.14415688812732697,0.2825852632522583,0.6098756790161133
1765549758636378600,10.954378662109375,0.1557629406452179,0.421541303396225,0.599062979221344
1765549758646372600,10.96437255859375,0.1620362102985382,0.5663007497787476,0.528864860534668
1765549758656365600,10.974365478515624,0.15086930990219116,0.6378226280212402,0.4245392084121704
1765549758666358800,10.98435888671875,0.12360081821680069,0.6348015069961548,0.32727622985839844
1765549758676351500,10.9943515625,0.12259920686483383,0.5853114128112793,0.2912828028202057
1765549758686345500,11.004345458984375,0.1168764978647232,0.49485740065574646,0.297897607088089
1765549758696338700,11.014338623046875,0.10556205362081528,0.3872097432613373,0.2932701110839844
1765549758706331600,11.02433154296875,0.10213208943605423,0.2970520257949829,0.2569752335548401
1765549758716324600,11.03432470703125,0.1195121482014656,0.2362973541021347,0.2046283781528473
1765549758726318600,11.044318603515626,0.14819541573524475,0.20511341094970703,0.12105482071638107
1765549758736311600,11.0543115234375,0.18628713488578796,0.20087073743343353,0.042785048484802246
1765549758746304500,11.064304443359376,0.20101507008075714,0.1605190932750702,-0.024998152628540993
1765549758756297500,11.07429736328125,0.19022846221923828,0.1753734052181244,-0.05522875860333443
1765549758766291700,11.084291748046875,0.15991120040416718,0.28855371475219727,-0.04807386174798012
1765549758776284700,11.09428466796875,0.10108382999897003,0.401250422000885,-0.0527154840528965
1765549758786277600,11.104277587890625,0.03904622048139572,0.44243237376213074,-0.08376101404428482
1765549758796270600,11.1142705078125,0.02592962235212326,0.495506227016449,-0.11390320956707001
1765549758806263800,11.124263916015625,0.05438005551695824,0.5966141819953918,0.031527649611234665
1765549758816257800,11.1342578125,0.0023104632273316383,0.4014769196510315,0.19585801661014557
1765549758826250500,11.14425048828125,-0.0241857822984457,0.03395412862300873,0.2190263271331787
1765549758836243700,11.15424365234375,0.06936946511268616,-0.060367316007614136,0.17175282537937164
1765549758846236700,11.164236572265626,0.1746349036693573,-0.07844404131174088,0.07983606308698654
1765549758856230700,11.174230712890624,0.15271149575710297,-0.051830537617206573,-0.02499927207827568
1765549758866223600,11.1842236328125,0.04968030005693436,0.0535888597369194,-0.14827342331409454
1765549758876216600,11.194216552734375,-0.06625402718782425,0.20997074246406555,-0.23934794962406158
1765549758886209800,11.204209716796875,-0.1812940239906311,0.3843459188938141,-0.2980457842350006
