time,seconds_elapsed,z,y,x
1765549747743772000,0.06177197265625,0.011865209838747977,-0.022566052073240278,0.1358813560100272
1765549747753764900,0.071764892578125,0.1508019713640213,0.0002782324194908142,0.0015953794326633215
1765549747763757800,0.0817578125,0.31207214525043964,0.11606091285049915,-0.052985374930128455
1765549747773751800,0.091751708984375,0.58693596509099,0.14813596702516077,-0.11339132831506431
1765549747783744800,0.101744873046875,0.440562916085124,0.17372925796508787,-0.11110416722595691
1765549747793737700,0.11173779296875,-0.08890753298699855,0.051425066810846326,0.29416341746374963
1765549747803730700,0.121730712890625,-0.41792613686323166,0.20252046816349029,0.3788829972416162
1765549747813724000,0.131723876953125,-0.5458727178186178,0.2624631879508495,0.22283574563525615
1765549747823718000,0.1417177734375,-0.44872459523081776,0.24635084206163882,0.07095934997275472
1765549747833710600,0.151710693359375,-0.09364391385912894,0.19679273816645143,-0.010265154230967164
1765549747843703800,0.161703857421875,0.47552726196050643,0.16381868932545185,-0.17076142113544046
1765549747853696800,0.17169677734375,0.7366349436491727,0.21825170578062533,-0.23862623915895817
1765549747863689700,0.181689697265625,0.6623761137396097,0.21109072811007498,-0.29313743541687726
1765549747873683700,0.19168359375,0.2596019533008337,0.26178046638369556,-0.3499192800205201
1765549747883676700,0.2016767578125,0.09711305127441883,0.37750118749439715,-0.38473340377025306
1765549747893670000,0.211669921875,0.39148704274892804,0.4193874415874481,-0.432021663037315
1765549747903662600,0.22166259765625,0.958042483112216,0.3232563870877027,-0.553556623384729
1765549747913655800,0.23165576171875,1.246504620194435,0.3743582132935524,-0.6150020028200001
1765549747923649800,0.24164990234375,1.3114993626743554,0.4882756843745708,-0.46663244623467326
1765549747933642800,0.251642822265625,1.0489560952246189,0.40549744792282577,-0.3236693518027663
1765549747943635700,0.2616357421875,0.34220892483890053,0.48479368747770785,-0.18174590261690318
1765549747953628700,0.271628662109375,-0.27426117777228354,0.5660246944874525,-0.068347340843454
1765549747963622000,0.281621826171875,-0.6758049196332693,0.5147276379704475,-0.06275237038061023
1765549747973615600,0.29161572265625,-1.0684089837133883,0.22456512671113013,-0.2932770630832761
1765549747983608800,0.30160888671875,-1.3130384088099003,0.011714403191208839,-0.6648331515029072
1765549747993601800,0.311601806640625,-1.2154618316769599,-0.09348784651458263,-0.9110947809111326
1765549748003594800,0.3215947265625,-0.8369225333064794,-0.06336158832013607,-0.9574553308740258
1765549748013587700,0.331587646484375,-0.2539893741160631,-0.12722761903107166,-0.749471336607635
1765549748023581700,0.341581787109375,0.3996457992851734,-0.03319850524663925,-0.27776078339107335
1765549748033575000,0.351574951171875,1.1193629258811473,0.2111860051780939,0.28641090364083643
1765549748043567600,0.361567626953125,0.9288982216924428,0.43846097536981105,0.75829264870584
1765549748053560800,0.371560791015625,0.19624621019959448,0.4935480718195438,0.5507936614774167
1765549748063553800,0.3815537109375,-0.4088561107009649,0.3918161285728216,-0.11044088101163506
1765549748073547800,0.3915478515625,-0.8874000901341438,0.2856862426280975,-0.8403649288453161
1765549748083540700,0.401540771484375,-1.0074468577504156,0.5098059636592864,-1.4548504335105419
1765549748093533700,0.41153369140625,-0.394743414196372,0.875538387426734,-1.8770742675676941
1765549748103527000,0.42152685546875,0.06490881776213646,0.9885954422861337,-1.8041877489246427
1765549748113519600,0.43151953125,0.9908253932952881,0.7890659726321697,-1.9484964127466082
1765549748123513600,0.441513671875,1.8865379692226647,0.51755789296031,-2.1271394539773465
1765549748133506800,0.4515068359375,2.4396605120390653,0.2940337997347116,-2.0198336561210453
1765549748143499800,0.461499755859375,2.601545018431544,-0.10080547605156898,-1.7765372331939637
1765549748153492700,0.47149267578125,2.250183649843931,-0.3663140230476856,-0.5735328781604766
1765549748163485700,0.481485595703125,2.147595382028818,-0.48991994445025916,1.695381775638461
1765549748173479000,0.49147900390625,1.933240683686733,-0.8055535815745591,3.1499206589818
1765549748183472600,0.50147265625,1.6647534131407737,-0.7785609452307224,1.5710180216059089
1765549748193465600,0.511465576171875,2.062130098450184,-0.3928600846678018,-0.8754004402607679
1765549748203458800,0.521458740234375,3.231549725398421,0.04002513639628887,-2.934478749924898
1765549748213451800,0.53145166015625,2.7900200101077557,0.9435884258240461,-3.5127024162501095
1765549748223444700,0.54144482421875,0.86907415984869,1.6168717180252075,-3.3996120436429975
1765549748233438700,0.551438720703125,0.2997171060681343,1.1043243467032908,-3.430604271017015
1765549748243431700,0.561431640625,0.9803770645171404,0.45573593529760836,-3.6645506817966695
1765549748253424600,0.571424560546875,1.288378014805913,0.15000643707215786,-3.697743049563467
1765549748263417600,0.58141748046875,0.6812807206958532,-0.2051601690173149,-3.1009915006399154
1765549748273410800,0.591410888671875,0.43487493357658386,-0.5799556046843528,-1.7807257709249853
1765549748283404800,0.60140478515625,0.041788638937473296,-0.6661947952449321,-0.7224345688611269
1765549748293397800,0.611397705078125,0.30905484325587745,-0.7855915745198726,0.18394699285775423
1765549748303390700,0.621390625,1.493407250919938,-0.8504074533015489,-0.1566030588582158
1765549748313384000,0.631384033203125,2.427860768651962,-0.48441433277130125,-1.8767580412253737
1765549748323376600,0.641376708984375,2.015728412759304,0.2798392701655626,-3.5225334899127483
1765549748333370600,0.65137060546875,0.6618260786414146,1.0877046358138323,-3.531218608410656
1765549748343363800,0.66136376953125,-1.1744406699806451,1.452020763042569,-3.029835897442698
1765549748353356800,0.671356689453125,-0.535208115941286,1.141558975598216,-2.4250664617583153
1765549748363349800,0.681349853515625,2.2191250792354342,0.7674532757610082,-2.7732240658685563
1765549748373342700,0.6913427734375,4.081980559575557,0.5188999552190303,-3.005029957488179
1765549748383336700,0.701336669921875,4.124484653306007,0.2992068184584379,-2.2590683825671674
1765549748393330000,0.711329833984375,2.353346502676606,0.088020813280344,-1.2388789476215838
1765549748403322600,0.721322509765625,0.576497573184967,0.21639409521520137,-1.1412012482017277
1765549748413315800,0.73131591796875,0.493926257482171,0.9445797749489545,-1.4202899922609329
1765549748423308800,0.741308837890625,1.004145478117466,1.6830612232476472,-1.8222312090069055
1765549748433302500,0.751302490234375,1.5403098718702792,2.201999756911397,-2.19095287771821
1765549748443295700,0.761295654296875,2.2544395537227393,2.1736206346452236,-2.218346496078372
1765549748453288700,0.771288818359375,3.2792537258595225,2.0149924997001887,-2.5838527098745105
1765549748463281700,0.78128173828125,3.3754695360332727,1.8125515265136956,-2.727996392393112
1765549748473274600,0.791274658203125,2.9815900451898574,1.6257582043141126,-2.870600444254279
1765549748483268900,0.801268798828125,2.2661621402204037,1.9245564419716596,-2.806026557534933
1765549748493261800,0.81126171875,1.2120982004627585,2.2640432483702897,-1.609859793436527
1765549748503254500,0.821254638671875,0.989631799596548,2.5065970362365246,-0.3288426627874374
1765549748513247700,0.831247802734375,1.446259715297818,3.012771365395188,0.18482757508456707
1765549748523240700,0.84124072265625,1.5444950486004352,5.653595670291781,0.866401725769043
1765549748533235000,0.85123486328125,0.22375673293769358,5.056548645552993,0.35531507464945317
1765549748543227600,0.8612275390625,0.41289223434925076,1.4040601574718952,-1.155900804683566
1765549748553220900,0.871220947265625,2.4783698896616695,1.9415993467092514,-1.569564607927203
1765549748563213800,0.8812138671875,3.2020559198886156,2.612197929871082,-1.8410843780368567
1765549748573206800,0.891206787109375,3.8377360421434044,1.9313520934611559,-2.8529116428285834
1765549748583201500,0.901201416015625,3.1095415945813056,1.6175672990739345,-3.4871681620210406
1765549748593194800,0.91119482421875,2.5398165842711924,1.616221729683876,-3.3298440954118966
1765549748603187500,0.9211875,2.7726567873746153,1.9358079038262366,-2.824456532716751
1765549748613180700,0.9311806640625,2.9805612866640088,2.2800018650025127,-2.286467261624336
1765549748623173600,0.941173583984375,2.795597517979145,2.7256919148430225,-1.6274615011006592
1765549748633167600,0.951167724609375,1.8357257736131547,2.856579517686367,-1.4907470917999743
1765549748643160600,0.96116064453125,1.1812243387714028,2.3896707387283445,-1.9991250684827564
1765549748653153500,0.971153564453125,1.0452592865332961,2.2191139733195304,-2.237619351825118
1765549748663146800,0.981146728515625,0.36204584420919417,2.566498547230661,-2.1992343838512896
1765549748673139500,0.991139404296875,0.2501218850329518,2.6981907444551587,-2.0696084715068337
1765549748683133700,1.0011337890625,1.6424042186886072,2.822432625673711,-1.8883944107443094
1765549748693126700,1.011126708984375,2.4940321536958217,3.997678182296455,-1.8042320264577865
1765549748703119600,1.02111962890625,2.404761048093438,4.579518870075047,-1.842971214696765
1765549748713112600,1.031112548828125,1.8442790824249387,4.05329339427352,-2.084780321675539
1765549748723105800,1.041105712890625,-0.1333145377293229,3.3365605441853403,-2.88197524022758
1765549748733099800,1.051099853515625,-2.127806101192534,2.7904244992554186,-3.107480862659216
1765549748743092500,1.061092529296875,-2.4768743904069064,1.7764216439902782,-3.4522049851894376
1765549748753085700,1.071085693359375,-1.2143366270393132,0.8502084235981107,-3.2264246374696492
1765549748763078700,1.08107861328125,0.9381871513023972,1.4680185426414012,-2.196087317997217
1765549748773071600,1.091071533203125,1.7991177521839736,2.132852570927143,-1.823151246461272
1765549748783065600,1.101065673828125,1.5264146175086497,2.8600676520630715,-2.3941847090214488
1765549748793058600,1.11105859375,0.46472295935153957,3.4474887703225017,-2.9185201332926747
1765549748803051800,1.1210517578125,-0.06670096187591552,3.2585444075688716,-3.4851375329762697
1765549748813044500,1.13104443359375,-0.2215487014994025,3.921247561305761,-2.930601031708717
1765549748823037700,1.14103759765625,-0.7820195612519979,4.634941482089459,-1.3471768252551555
1765549748833031700,1.15103173828125,-0.9945146032020449,4.559710007755458,-0.48240533103644845
1765549748843024600,1.161024658203125,-0.7511945071384311,3.6738787743732333,-0.44107378821671006
1765549748853017600,1.171017578125,-0.9236461463831365,3.0258795610323546,-0.703090401443839
1765549748863010600,1.181010498046875,-1.630722987114638,2.909590392383933,-0.9081208066016435
1765549748873003800,1.191003662109375,-2.143855610978603,2.489967680735886,-1.1849626485168934
1765549748882997500,1.20099755859375,-2.2813341365195807,1.9462991949632762,-1.0573989293992518
1765549748892990500,1.210990478515625,-1.8882533948384224,1.686222609888017,-0.29843349599838254
1765549748902983700,1.220983642578125,-1.3406754805371164,1.930514473593235,0.4827098669409752
1765549748912976600,1.2309765625,-0.7328998487740754,2.547363346388936,1.0514432358652352
1765549748922969600,1.240969482421875,-1.102619296351075,2.802303737619519,1.22303372823596
1765549748932963600,1.250963623046875,-1.3171765315279365,2.491878775054216,0.7029121222674847
1765549748942956800,1.260956787109375,-1.8940237949334084,1.8967641796827315,-0.27168518980443473
1765549748952949500,1.270949462890625,-1.99406427796185,1.396162389959395,-1.0732172607779502
1765549748962942700,1.280942626953125,-1.5995216470345854,2.0602790637560187,-1.0012094246655703
1765549748972935700,1.290935791015625,-1.6145315846398471,3.0498619096443056,-1.7245657845467328
1765549748982929700,1.3009296875,-1.3834835256502032,2.892390835779905,-2.0010890620321033
1765549748992922600,1.310922607421875,-0.13857523473650216,2.7894395798712965,-1.8624089056164026
1765549749002915600,1.32091552734375,0.09273118292838335,3.830004278847575,-2.0207383498758076
1765549749012908800,1.33090869140625,-0.7739863307915628,4.357055976340175,-1.399664552861452
1765549749022901500,1.340901611328125,-2.410960487255454,3.9360879875630137,-0.77291446377635
1765549749032895500,1.3508955078125,-2.340380638119578,3.4623718666777012,-0.315076003241539
1765549749042888700,1.360888671875,-2.026144885094464,3.6906203580766914,-0.4308072457462549
1765549749052881700,1.370881591796875,-2.1199353678174315,4.267327482359111,-0.5673264247357845
1765549749062874600,1.38087451171875,-2.2097421877317127,4.674303478401899,-0.2571960612028837
1765549749072867600,1.39086767578125,-2.0259480473481117,4.671227724218368,-0.0010614917516708372
1765549749082861600,1.400861572265625,-1.0246031597346066,4.46555200689435,-0.49834056679308414
1765549749092854800,1.410854736328125,0.15966346934214234,4.010264107625186,-0.8974509440273046
1765549749102847500,1.420847412109375,-1.3277490712076425,3.5839860297411676,-1.1142705711781977
1765549749112840700,1.4308408203125,-1.7525749044567345,3.1721713614955545,-0.9297592224359512
1765549749122833700,1.440833740234375,-8.64952403743565,2.381790653003007,-3.144793232965469
1765549749132827600,1.45082763671875,-4.152436490070819,1.7630992210805414,0.0040355391263961786
1765549749142820600,1.460820556640625,-1.4870499908477066,1.1689898572288453,0.5576064102321863
1765549749152813600,1.4708134765625,-2.0477391695261002,0.7516586905840784,0.5845791728317737
1765549749162806500,1.480806640625,0.3833528361320495,1.5793290460944174,0.22507424527704714
1765549749172799500,1.490799560546875,-1.4642992298573254,2.0589681272879243,-0.5330354480773211
1765549749182793700,1.500793701171875,-1.8717466428041456,1.57614910088405,-0.06069733754694461
1765549749192786700,1.51078662109375,-0.7781634703457355,2.1791022809267044,1.0835264733463525
1765549749202779600,1.520779541015625,-0.7793126403808593,2.79936446929723,1.8768553641200065
1765549749212772600,1.530772705078125,-1.3868430652111767,3.373164766222238,1.6839350834727287
1765549749222765600,1.540765625,-1.5961176838099955,3.5785645892143245,1.5594570554107428
1765549749232759800,1.550759765625,-1.3363269299387932,3.1091818213582036,1.3157944295197725
1765549749242752500,1.56075244140625,-0.9695710083425044,2.6294953938916326,0.8120628173381089
1765549749252745700,1.570745849609375,-1.7838684528648852,2.2817238664895294,0.5141372708618641
1765549749262738700,1.58073876953125,-1.589016911894083,1.8336127269819378,0.4976175132155418
1765549749272731600,1.590731689453125,-1.0609995842397213,1.4894450692906975,0.21330197441875934
1765549749282725600,1.6007255859375,-0.7098048043906688,1.3950297326676546,-0.055665773120522496
1765549749292718600,1.610718505859375,-0.7700421232104301,1.5919357219502328,-0.42921091646552084
1765549749302711800,1.6207119140625,-1.8665490741610526,1.670990846225619,0.18387889605760574
1765549749312704500,1.63070458984375,-3.4701404548525807,1.051892294806987,1.32353876003623
1765549749322697700,1.64069775390625,-2.684560570770502,0.9626846098296343,2.059958599629998
1765549749332690700,1.650690673828125,-2.0359236440479753,1.6508309785112738,1.9536381595492363
1765549749342684400,1.660684326171875,-1.2216940771300344,1.5386638582289218,0.8519581898748874
1765549749352677600,1.670677734375,-0.6495138556875288,1.281372812218964,0.0890408039778471
1765549749362670600,1.680670654296875,-0.42124388310909266,1.196722352154553,-0.6340794090598821
1765549749372663800,1.690663818359375,-1.1474410924393683,1.0256661127910018,-1.5769617324411869
1765549749382657500,1.700657470703125,-2.496478085543215,0.5601780142858624,-2.7935470151901245
1765549749392650500,1.710650390625,-3.517223693066835,0.3710430973961949,-3.5071260774224995
1765549749402643700,1.720643798828125,-3.2186206857204436,0.9856067818641662,-2.8665631515622136
1765549749412636400,1.730636474609375,-1.6819734280109404,1.4271245144560931,-1.8487685027986764
1765549749422629600,1.740629638671875,-0.7486006912529468,1.7723948726922272,-0.18511574437618256
1765549749432623600,1.75062353515625,0.025804303342103957,2.299985207106173,0.7905775462388992
1765549749442616600,1.760616455078125,0.12626578826159238,1.511402634076774,0.00426467170715332
1765549749452609500,1.770609619140625,-1.0248960052013396,1.0637594043418765,-0.010754618248343468
1765549749462602500,1.7806025390625,-1.6937448220863938,0.9809884744137525,0.021304069313406945
1765549749472595700,1.790595703125,-1.7453730102539062,0.8593725577846169,-0.5667986014693975
1765549749482589700,1.800589599609375,-1.416358205769956,0.5018833539664745,-1.0833879416584968
1765549749492582700,1.810582763671875,-1.289172380053997,0.29725773021727797,-1.0677227550148964
1765549749502575600,1.82057568359375,-1.7322762127935885,0.30778730753809214,-0.672765405806899
1765549749512568800,1.83056884765625,-1.8610922700598835,0.2605012402281165,-0.41140228805243967
1765549749522561500,1.8405615234375,-1.8304349737286567,0.08866291057616471,-0.24979075338244436
1765549749532554800,1.8505546875,-1.8414353834316133,-0.3040413990080356,-0.04397533532679081
1765549749542548700,1.860548828125,-1.7784221701577305,-0.5142150122731923,0.0021358429849147797
1765549749552541700,1.870541748046875,-1.9750643939375876,-0.7109013674557209,-0.31845395524203773
1765549749562534700,1.88053466796875,-2.1394775420248506,-1.0037743067175149,-0.74559215708673
1765549749572527600,1.890527587890625,-2.289912433642149,-1.3247519352182746,-1.1628531080394982
1765549749582521300,1.900521240234375,-2.524699386899173,-1.3398054197043179,-1.0387912595629691
1765549749592514600,1.9105146484375,-2.2809560969874263,-1.0785130290985108,-0.6623685149550438
1765549749602507300,1.92050732421875,-1.9765198534429071,-1.0325020962908864,-0.2274853980720043
1765549749612500500,1.93050048828125,-1.795859334909916,-1.3146642564460636,-0.14480711486339568
1765549749622493400,1.940493408203125,-2.5881056911438702,-1.4231515191718935,-0.39612873107492924
1765549749632487400,1.9504873046875,-2.8750583004459735,-1.1844868476986885,-0.5250006101816892
1765549749642480400,1.96048046875,-3.1820904057025907,-0.6350201970413327,-0.4030740201681852
1765549749652473300,1.970473388671875,-4.235089346577227,-0.6207070095285773,-0.11401216362714767
1765549749662466600,1.980466552734375,-5.0490802093684675,-0.8720996451497077,-0.29632337197661396
1765549749672459300,1.990459228515625,-5.530262136089801,-0.6727122143149376,-0.33087621444165705
1765549749682452500,2.000452392578125,-5.941167580536008,-0.6119947107627988,-0.16712766774296758
1765549749692446500,2.010446533203125,-5.872761568307876,-0.7985822812572121,-0.3735077339440584
1765549749702439400,2.020439453125,-5.826235379454493,-1.007416462612152,-1.08897713996768
1765549749712432400,2.030432373046875,-6.04789660141766,-0.9069526396051049,-1.732521711987257
1765549749722425300,2.04042529296875,-6.563298777648806,-0.6580857230693101,-2.0616227334499357
1765549749732419600,2.050419677734375,-7.039306516602635,-0.43174949503242965,-2.324437219056487
1765549749742412300,2.060412353515625,-7.688768788233399,-0.09398615142554044,-2.4323972430378196
1765549749752405500,2.070405517578125,-8.466526015865803,0.3500497014671564,-2.4724977827578782
1765549749762398500,2.0803984375,-9.25438553531766,0.7829653176695108,-2.6760738974541423
1765549749772391400,2.090391357421875,-9.957668244463205,1.2830536049127579,-3.105518622675538
1765549749782384400,2.10038427734375,-10.503315921354293,2.0152783309042452,-3.466831476435065
1765549749792378400,2.11037841796875,-10.791957506656646,2.5459333135858175,-3.7057635666728017
1765549749802371600,2.12037158203125,-10.510140798938274,2.637506850911677,-3.8388860889613627
1765549749812364300,2.1303642578125,-10.226177726840973,2.889171581472456,-3.578912964260578
1765549749822357500,2.140357421875,-10.415790782636403,3.501516713108122,-3.0958290033102034
1765549749832351500,2.1503515625,-10.582123500609397,4.25552423184067,-2.4861639045387505
1765549749842344400,2.160344482421875,-10.907716221690178,4.861682783795893,-2.4792338130146265
1765549749852337400,2.17033740234375,-11.35645133831501,5.512900082400441,-3.000226941120624
1765549749862330400,2.180330322265625,-12.178123110997676,6.117159522736072,-3.8366415249049663
1765549749872323600,2.190323486328125,-12.940599182868002,6.7322057300239795,-4.873180621626973
1765549749882316300,2.20031640625,-13.053828087162971,7.749200752842426,-5.593446029755473
1765549749892310300,2.210310302734375,-12.993245900428294,9.05007116947472,-6.223538999527692
1765549749902303500,2.220303466796875,-12.913072878038882,10.66617424121499,-6.781388570865988
1765549749912296400,2.23029638671875,-12.6973691031754,12.253458630228042,-7.066454635769128
1765549749922289400,2.240289306640625,-12.603464492553472,13.506658364146947,-7.852283526176214
1765549749932283400,2.250283447265625,-13.088333583354949,14.53311387374997,-9.266067789804936
1765549749942276400,2.2602763671875,-13.73033852471709,15.391448028397559,-10.845520754539965
1765549749952269300,2.270269287109375,-14.00630650640726,16.853843470460177,-11.747849533736705
1765549749962262300,2.28026220703125,-13.271582364815472,18.395519954508543,-12.136802089571953
1765549749972255500,2.29025537109375,-11.850774486160278,19.21434042941332,-12.217568986201286
1765549749982249500,2.30024951171875,-11.066643047320841,19.748273118591307,-12.493026095759868
1765549749992242400,2.310242431640625,-10.656094745749234,20.094462052977082,-13.00060386197567
1765549750002235400,2.3202353515625,-10.521168388909102,20.24469586906433,-14.193228423422575
1765549750012228600,2.330228515625,-10.26791843498349,20.603975755691526,-15.316877063798904
1765549750022221300,2.34022119140625,-9.186862735664844,21.49482452497482,-15.861921514099835
1765549750032215300,2.35021533203125,-8.070822232204675,22.657440901648997,-15.894901408159733
1765549750042208500,2.36020849609375,-7.301786655688286,23.771022906041143,-15.4188597669363
1765549750052201500,2.370201416015625,-6.262560511839389,24.626056850099562,-15.567366905361412
1765549750062194400,2.3801943359375,-5.193229152584076,25.182774202537534,-16.19949576487541
1765549750072187400,2.3901875,-4.421711111602187,25.104915886831282,-17.043493935656546
1765549750082181400,2.400181396484375,-4.001939639133215,24.93712303317785,-17.881034308600423
1765549750092174600,2.410174560546875,-3.1228064420849084,25.198292089664935,-18.3376674849987
1765549750102167300,2.420167236328125,-2.236286057394743,25.3742612355113,-18.47953796188831
1765549750112160500,2.430160400390625,-1.3752455663979053,25.518268724429607,-18.386655095529555
1765549750122153500,2.440153564453125,-0.15273155118711293,25.910543702685832,-18.428389958453177
1765549750132147200,2.450147216796875,0.4798942980635911,26.04587221058607,-18.700964206051825
1765549750142140400,2.460140380859375,0.659298679055646,26.089330244040486,-19.471095176589486
1765549750152133400,2.47013330078125,1.0821044046539812,26.823536499238013,-20.905343551576138
1765549750162126300,2.480126220703125,1.956922149655968,27.486744387626647,-22.021340800416468
1765549750172119300,2.490119384765625,3.10864756835103,28.127892419898508,-21.92943291656971
1765549750182113500,2.500113525390625,4.021379668140411,28.770864160466193,-21.22572701357603
1765549750192106500,2.5101064453125,4.4206233163654804,29.155184964847564,-20.762315721344947
1765549750202099200,2.52009912109375,4.794133972918987,29.306679010128974,-20.7525191344738
1765549750212092400,2.530092529296875,5.702264716392755,29.418916565299032,-20.941212152814863
1765549750222085400,2.54008544921875,6.4744274850189685,29.504605136239526,-21.05015300452709
1765549750232079600,2.55007958984375,6.510795267951488,29.458042122507095,-20.94120513855219
1765549750242072300,2.560072265625,6.529729101002216,28.90724246968031,-20.879771887946127
1765549750252065500,2.5700654296875,7.039927863371372,28.691836800980568,-21.177929489612577
1765549750262058500,2.58005859375,8.000015588575602,29.04011832373142,-20.879704083406924
1765549750272051500,2.590051513671875,9.214705851358175,29.18920413882732,-19.97857941930294
1765549750282045400,2.60004541015625,10.230085840195416,28.877382753467558,-18.924983389317987
1765549750292038400,2.610038330078125,10.871246731948851,28.21059759111404,-17.408380556249618
1765549750302031600,2.620031494140625,10.57038513202071,27.563976095867154,-15.922700100189447
1765549750312024300,2.6300244140625,10.25544473785758,26.712376802432537,-14.88425838471651
1765549750322017500,2.640017578125,10.573312417644262,26.07502114818096,-14.053445858722924
1765549750332011500,2.650011474609375,11.099279242509603,25.923590231263635,-12.36219256119132
1765549750342004200,2.660004150390625,11.289860266554355,25.45625329002142,-10.507782837635277
1765549750351997400,2.66999755859375,11.07065637461543,24.599400313842295,-9.171002318710087
1765549750361990400,2.679990478515625,10.719898817139864,23.370920010638237,-8.67296745686531
1765549750371984400,2.689984375,10.64994908260107,22.02540439659357,-8.585241242617368
1765549750381977300,2.699977294921875,10.747632042717933,21.032423286569117,-8.348895077219606
1765549750391970300,2.70997021484375,10.76326683422327,20.319451542580126,-7.235587213593721
1765549750401963500,2.719963623046875,10.419196207165717,19.65908443057537,-5.038232067617773
1765549750411956200,2.729956298828125,10.129133064627647,18.899089069604873,-2.6580928350836035
1765549750421949400,2.739949462890625,9.901711963963509,17.965898703676462,-0.8535022044464945
1765549750431943400,2.749943359375,9.962793332391977,17.061062325572966,0.5923848781466484
1765549750441936400,2.759936279296875,9.82108418354392,16.33704077978134,1.7835124790340662
1765549750451929300,2.769929443359375,9.587263737231492,15.82151819204092,2.7639795599222183
1765549750461922300,2.77992236328125,9.512445519873499,15.038409666508436,3.611393676626682
1765549750471915500,2.78991552734375,9.467697446608543,13.796409371995924,4.468205736273527
1765549750481909500,2.799909423828125,9.40453693381846,13.087246372640132,5.373638326704501
1765549750491902500,2.80990234375,9.476919448462128,12.339395038449764,6.363826006618142
1765549750501895400,2.8198955078125,8.922168427661061,11.358515869629382,7.1815259530603885
1765549750511888400,2.829888427734375,8.389940788835286,10.40734911750555,7.533034036642313
1765549750521881300,2.83988134765625,7.693214077204465,9.59191010173261,7.731198647683859
1765549750531875300,2.849875244140625,6.8057128647834055,8.990501959174871,7.912943454322218
1765549750541868500,2.85986865234375,5.995062252330779,8.292557103925942,7.728260256144404
1765549750551861500,2.869861572265625,5.588201699361205,7.6182152425825596,7.52481448982954
1765549750561854500,2.8798544921875,5.331357520335913,7.296674427241086,7.429657833319902
1765549750571847400,2.889847412109375,4.728026885282993,7.107540679395198,7.293655956202745
1765549750581841400,2.89984130859375,3.798205703526735,6.6174903865635395,7.359123576891422
1765549750591834600,2.909834716796875,3.0904595852315424,6.089997959566116,7.480885916253924
1765549750601827300,2.919827392578125,2.4020506200909613,5.758438439035415,7.584546781736612
1765549750611820500,2.929820556640625,1.5160498753607272,5.573825968006253,7.568929525887966
1765549750621813500,2.9398134765625,0.7437021055564284,5.2982168827563525,7.104062189629674
1765549750631807500,2.949807373046875,0.34029929182529445,5.142449397939443,6.474646096205711
1765549750641800400,2.959800537109375,0.19743688128888606,5.024769359454512,5.787450598508119
1765549750651793400,2.96979345703125,0.1709048481941223,4.863296940994262,5.16586008414328
1765549750661786600,2.97978662109375,0.22137276041060686,4.70895335150063,4.5600557524532075
1765549750671779300,2.989779296875,0.5411699469551444,4.432400263398885,3.7250264855474233
1765549750681773300,2.999773193359375,0.9428770626842975,3.9893957993805405,2.867468575969338
1765549750691766500,3.0097666015625,1.0897533850371837,3.7434821796923874,2.1253817966550588
1765549750701759500,3.019759521484375,1.4144061949193476,3.590095452532172,1.3700801464587449
1765549750711752400,3.02975244140625,1.9730290887176989,3.4852702194452285,0.4867079966664314
1765549750721746400,3.039746337890625,2.4820465323477983,3.441993387776613,-0.5493558837592601
1765549750731739600,3.04973974609375,2.9800270336568353,3.4661487548679113,-1.4711802215427159
1765549750741732600,3.059732666015625,3.321891090580821,3.498745787090063,-2.127417686396837
1765549750751725300,3.069725341796875,3.7093262275904415,3.414557683840394,-2.5986536809042096
1765549750761718500,3.079718505859375,4.198651713278889,3.1803900315254925,-2.958426904006302
1765549750771711500,3.08971142578125,4.5165255305454135,2.954525512653589,-3.16540961227566
1765549750781705700,3.099705810546875,4.3141593761608,2.830112951043248,-3.379957787363231
1765549750791698400,3.109698486328125,4.200165624973177,2.816086179256439,-3.4527830773383377
1765549750801691600,3.119691650390625,3.956491308644414,3.2583921396166082,-3.3341610818281766
1765549750811684600,3.1296845703125,3.922230142602324,3.742044840365648,-3.337443464499712
1765549750821677600,3.139677490234375,4.350826142039895,3.437874262019992,-3.891323255424201
1765549750831671600,3.149671630859375,4.831951077876985,3.6029403210580346,-4.146546555249393
1765549750841664500,3.15966455078125,4.786080138061941,3.512361639988422,-4.05625808929801
1765549750851657500,3.169657470703125,4.888494510614872,3.3216479294747114,-3.6690181825995443
1765549750861650400,3.179650390625,5.633636001324653,3.5780431956887244,-3.07043386529088
1765549750871644400,3.18964453125,5.842721234831213,3.4625820022970437,-2.8821622872322794
1765549750881637600,3.1996376953125,5.962407352441549,3.3997336241960525,-3.141291362324357
1765549750891630300,3.20963037109375,6.0345724249422545,3.4405081176549195,-3.837087515106797
1765549750901623600,3.21962353515625,5.8316135653615,3.6975820137828586,-4.365127346853912
1765549750911616500,3.229616455078125,5.555337540635466,4.0041678365767,-4.552968132279813
1765549750921610500,3.239610595703125,5.796855555713177,4.305978700053692,-4.405625653719902
1765549750931603500,3.249603515625,6.439889255601167,4.582604853391647,-3.9022722272008656
1765549750941596400,3.259596435546875,6.738451346415281,4.428182937964797,-3.1080630464613437
1765549750951589600,3.269589599609375,6.465073965740204,4.269891487628222,-2.245907579959929
1765549750961582300,3.279582275390625,5.914180204889178,4.344637224271893,-1.832297552730143
1765549750971576600,3.28957666015625,5.069500481584668,4.486045928868651,-1.8374015978708862
1765549750981569500,3.299569580078125,4.5807902051851155,4.474959302186965,-2.2203416154183446
1765549750991562500,3.3095625,4.201735066246986,4.452550486502051,-2.843604300779104
1765549751001555500,3.319555419921875,3.6476436783984303,4.482902370145917,-3.618328152064979
1765549751011548400,3.32954833984375,3.777050687295198,4.866527008956671,-4.530186683890223
1765549751021542700,3.339542724609375,4.109586359381676,5.69401185183227,-5.411878333249688
1765549751031535400,3.349535400390625,3.6660990802824496,6.420294328293204,-5.946935642543434
1765549751041528600,3.359528564453125,3.197826904016733,6.750676037216186,-6.184112413546442
1765549751051521500,3.369521484375,2.77841140537858,7.019241633695364,-6.1669602032154796
1765549751061514500,3.379514404296875,2.424897242671251,7.305512982735038,-6.1174699038594955
1765549751071508500,3.389508544921875,2.2306080117583273,7.2873618244945995,-6.247010476008057
1765549751081501400,3.39950146484375,2.378563361519575,7.252516721084714,-6.546905861252546
1765549751091494700,3.40949462890625,2.721178529071808,7.561529478764534,-6.7609314737707376
1765549751101487400,3.4194873046875,2.5861948890864848,7.722913634419441,-7.230797641229629
1765549751111480600,3.42948046875,2.4492624531209466,7.645323029738664,-8.033463100147246
1765549751121474600,3.439474609375,2.3647370807409285,7.4609689173847435,-8.66515181467831
1765549751131467500,3.449467529296875,2.247103219485283,7.273834818923473,-8.653536780208348
1765549751141460500,3.45946044921875,1.6668243741959332,7.221509588402509,-7.508188349199295
1765549751151453400,3.469453369140625,0.44578437706045804,7.153444352436066,-6.028952246972918
1765549751161446700,3.47944677734375,-0.2749129196792841,6.763721981272101,-5.263621954715251
1765549751171440600,3.489440673828125,-0.37093751812987025,6.476899428090452,-4.904829559344053
1765549751181433300,3.499433349609375,-0.23510624833926558,6.5432981921494004,-4.827475101506709
1765549751191426600,3.509426513671875,0.3929004897434264,6.815951934725046,-4.993974992740154
1765549751201419500,3.51941943359375,1.0878970896460116,7.008577616339921,-5.415236996027827
1765549751211412500,3.52941259765625,1.1858129817359149,7.159550852617621,-5.937121520015597
1765549751221406500,3.539406494140625,0.42971535885632034,7.045797047665715,-6.368918945842981
1765549751231399400,3.5493994140625,-0.8814872128285467,6.393885044795274,-6.7059437460422515
1765549751241392600,3.559392578125,-2.263204897850007,5.242246573731303,-6.646774348714947
1765549751251385300,3.56938525390625,-2.7745278419435024,4.7894262336194515,-5.587727067586779
1765549751261378600,3.579378662109375,-2.3114894746780394,5.2149324503481385,-3.8907542233645915
1765549751271372500,3.58937255859375,-1.8014008946850895,5.526151778161525,-2.937494298353791
1765549751281365500,3.599365478515625,-1.551940688431263,5.5021495558053255,-2.9236346998274323
1765549751291358500,3.6093583984375,-1.312334059932828,5.499584673753381,-3.246878227433562
1765549751301351400,3.619351318359375,-0.9046855714559554,5.38930643595755,-3.6826504021108146
1765549751311344400,3.629344482421875,-0.6240706407427787,4.996950793680548,-4.124242661243677
1765549751321338400,3.63933837890625,-0.8333644024334848,4.481822173693776,-4.259875120526552
1765549751331331600,3.64933154296875,-1.3365595696508883,4.3107852235525845,-3.934119317838549
1765549751341324500,3.659324462890625,-1.8489684092849492,4.7340959760636085,-3.293257701292634
1765549751351317500,3.6693173828125,-3.136975252690911,4.942426591810584,-2.8611569086045026
1765549751361310500,3.679310546875,-2.2285608699701727,4.037519194297492,-2.3511229814082384
1765549751371304400,3.689304443359375,-1.2147380474470555,3.5658901088193056,-1.9344108965098856
1765549751381297700,3.699297607421875,-1.3936514300517737,3.778285489787161,-1.9061457560122013
1765549751391290400,3.709290283203125,-1.326503308930248,4.171724835647642,-2.1123761846095324
1765549751401283600,3.71928369140625,-1.1694785175286233,4.334980922654271,-2.4884166519016024
1765549751411277600,3.729277587890625,-1.144357520275563,4.455954157465696,-2.627648596981168
1765549751421270500,3.7392705078125,-1.5032790949843824,3.893556421303749,-3.2377146777689454
1765549751431263500,3.749263427734375,-1.9240917470693588,3.5272532119110225,-3.2197248475700615
1765549751441256400,3.75925634765625,-3.662394965067506,2.995920768359303,-3.512537581077218
1765549751451249700,3.769249755859375,-4.831131285926699,2.475418930901587,-4.100176726001501
1765549751461243400,3.779243408203125,-5.026282686626911,2.205303328501433,-4.764729014736414
1765549751471236400,3.789236328125,-4.116109623670578,2.227960419858992,-4.692951480248571
1765549751481229600,3.7992294921875,-3.2554122470229863,2.8346117237672206,-4.202421294945478
1765549751491222300,3.80922216796875,-2.3709271675527095,3.0782047915533184,-4.275422818270325
1765549751501215500,3.819215576171875,-1.6334925979584454,3.225757113471627,-4.634976845663786
1765549751511209500,3.82920947265625,-1.7242589105546473,3.5510824157878753,-4.98991607273817
1765549751521202700,3.83920263671875,-2.3284483543939887,3.7304993640005586,-5.255743768686056
1765549751531195400,3.8491953125,-3.1294922034591433,4.040978394840658,-5.672604906666279
1765549751541188400,3.859188232421875,-4.292798900485039,4.321294927129149,-6.253490485677123
1765549751551181600,3.869181640625,-5.442710109364986,4.281244656291604,-6.7297250191241496
1765549751561175600,3.879175537109375,-6.08799421852827,3.9168890738353133,-6.711642249944806
1765549751571168500,3.88916845703125,-6.530968287408352,3.8023023251906034,-6.30319705813229
1765549751581161700,3.89916162109375,-7.129905655938386,4.009724593921005,-5.822970240178704
1765549751591154700,3.90915478515625,-7.182819500002265,4.095402351206541,-5.539113551065325
1765549751601147600,3.919147705078125,-6.935258113107085,3.826137958808243,-5.733567032629251
1765549751611141600,3.9291416015625,-7.373520935556292,3.205766464844346,-5.80065436347425
1765549751621134800,3.939134765625,-7.563667075315117,2.048245073221624,-6.087945703211426
1765549751631127600,3.94912744140625,-7.67856478960514,0.7486307941302657,-6.52351154166162
1765549751641120800,3.959120849609375,-7.901808312323689,-0.26685820803940297,-6.516783110189437
1765549751651113700,3.96911376953125,-8.488844815179705,-1.2606500499248503,-5.5526510780304665
1765549751661107700,3.979107666015625,-8.508514561289548,-2.274583639346063,-4.197708294948935
1765549751671100700,3.9891005859375,-8.195892965462804,-3.2266350653499365,-3.6953257592886684
1765549751681093600,3.99909375,-7.256305007451772,-3.8277994622796774,-3.187677265924215
1765549751691086800,4.0090869140625,-5.609418090391158,-3.816903681994974,-2.385762333112955
1765549751701079600,4.01907958984375,-4.340878748521209,-3.626555005401373,-1.5498954463392496
1765549751711073500,4.029073486328125,-3.4863200207591056,-3.6850010568901896,-1.0280839875876904
1765549751721066800,4.039066650390625,-2.7827280995339154,-3.9312466850116845,-0.6878618526518344
1765549751731059500,4.0490595703125,-1.9935062056876718,-3.914860490617156,-0.10017945310771464
1765549751741052700,4.059052734375,-1.3351935419946908,-3.489988772399723,0.1100678099155426
1765549751751045600,4.069045654296875,-0.8339251050561666,-2.799325890852511,0.23048107275664806
1765549751761039600,4.07903955078125,-0.7904182640239595,-1.8279335123017428,0.519338931158185
1765549751771032600,4.089032470703125,-1.093399048063159,-0.831570650884509,0.6910065804183483
1765549751781025500,4.099025634765625,-1.3024689378701149,0.12883300840109585,0.8005839764684438
1765549751791018800,4.109018798828125,-1.2403009432487189,0.8691118615105747,0.873947318843007
1765549751801011500,4.119011474609375,-1.1915497718222439,1.256226972785592,0.8008955266356468
1765549751811005700,4.129005615234375,-1.0962626208007336,1.4147399569183587,0.598635170713067
1765549751820998700,4.13899853515625,-0.9768144035995006,1.427578395703435,0.13494623058438301
1765549751830992000,4.148991943359375,-0.7027231755666434,1.107429326981306,-0.3334188846617937
1765549751840984600,4.158984619140625,-0.42489656039774415,0.6722726538538932,-0.7558470091193914
1765549751850978600,4.168978515625,-0.24003508304357526,0.36315702032148833,-1.0832739598900079
1765549751860971800,4.1789716796875,-0.023930764555186033,0.290239668148756,-1.1011246738791465
1765549751870964700,4.18896484375,0.05384557195603847,0.34733342824578284,-0.8581991300910711
1765549751880957700,4.198957763671875,-0.16583236723542213,0.3244882669702172,-0.424245987534523
1765549751890950700,4.20895068359375,-0.6614705432020127,0.30189532689005133,0.06327975525557994
1765549751900944600,4.218944580078125,-1.2275425839625298,0.26533728208243845,0.3123486241042614
1765549751910937600,4.2289375,-1.551056306812167,0.24248686010986564,0.40130759501755237
1765549751920930600,4.2389306640625,-1.8637175039969383,0.23163725705444813,0.46936873933076856
1765549751930923800,4.248923828125,-2.0694306307218966,0.1882674864053726,0.43939679491519923
1765549751940916700,4.258916748046875,-2.143961993962526,0.1276525664448738,0.25302082134485243
1765549751950910500,4.268910400390625,-1.9530675200544296,0.12391717930883168,0.1444797826051712
1765549751960903700,4.278903564453125,-1.6710210952334106,0.21120061822533606,0.1239928748935461
1765549751970896600,4.288896728515625,-1.4021253900170325,0.1990972157165408,0.10596914242506027
1765549751980889600,4.2988896484375,-1.2270401873983443,0.07423720259964466,0.13106325167119504
1765549751990882600,4.308882568359375,-1.0802939211659133,-0.007110124266147613,0.3109346656531095
1765549752000876500,4.31887646484375,-0.8885800936989485,-0.07898176677823067,0.5243892002850771
1765549752010869800,4.328869873046875,-0.7021287168048321,-0.17110153981000184,0.6799035871237517
1765549752020862500,4.338862548828125,-0.423485962947458,-0.21270546983033417,0.8382154957264661
1765549752030855700,4.348855712890625,-0.16268340168520806,-0.21887714420258997,0.9596037410795688
1765549752040848600,4.3588486328125,0.03343056043684482,-0.15835340965688227,1.070063765183091
1765549752050843000,4.3688427734375,0.1801332797884941,-0.015306582464277744,1.2124953830868006
1765549752060835600,4.378835693359375,0.2683041690640151,0.11262041700780391,1.300754096776247
1765549752070828800,4.388828857421875,0.31265023739933967,0.21696049692630767,1.306252109670639
1765549752080821800,4.39882177734375,0.16854235684648156,0.3407686629027128,1.2725094145447016
1765549752090815700,4.408815673828125,0.09349602982103825,0.5209612716630101,1.304338385003805
1765549752100808700,4.41880859375,0.06435176840126514,0.6368836528256535,1.2934838135123252
1765549752110801700,4.4288017578125,0.16727511338964104,0.6570277384489774,1.1975988427281379
1765549752120795000,4.438794921875,0.2927104421764612,0.5720230581194162,1.1544599582254886
1765549752130787600,4.44878759765625,0.46243747876286506,0.4813081834495067,1.10438162984848
1765549752140781600,4.458781494140625,0.6520885284811258,0.3862435891374945,1.040786817294359
1765549752150774800,4.46877490234375,0.8374293137848376,0.36106910813152787,0.9745318456202745
1765549752160767500,4.478767578125,0.9643588266521692,0.3514540153071284,0.862567262172699
1765549752170760700,4.4887607421875,1.0728669860355555,0.3151283179506659,0.8236363507539033
1765549752180753700,4.498753662109375,1.2554552577607332,0.23239538194537163,0.7599357397377491
1765549752190747600,4.50874755859375,1.4581968213289975,0.12284136677086352,0.5543780958354473
1765549752200740600,4.51874072265625,1.554710153144598,0.01313391460031271,0.32256665125787254
1765549752210733600,4.528733642578125,1.617429936429858,-0.01977700587660074,0.1929594436138868
1765549752220726800,4.538726806640625,1.7842406471781431,-0.14270342058241367,0.07651099275052547
1765549752230719500,4.548719482421875,1.941588825315237,-0.3805862940281629,-0.10941197635531424
1765549752240713500,4.55871337890625,2.084903071272373,-0.4706023727789521,-0.21692191848158834
1765549752250706700,4.568706787109375,2.2291472915560004,-0.34418022491186856,-0.16260463736057282
1765549752260699600,4.57869970703125,2.4361072034716607,-0.35453649149239064,-0.23681962812840937
1765549752270692600,4.588692626953125,2.5902257520377634,-0.36348785971105096,-0.27332944988012314
1765549752280685600,4.598685546875,2.7946272116422652,-0.3155675861507654,-0.34460078841149805
1765549752290679800,4.6086796875,2.7694512693315745,-0.3756757256329059,-0.5858031616687774
1765549752300672800,4.6186728515625,2.5650007098883387,-0.3504080133855343,-0.6601315496832132
1765549752310665700,4.628665771484375,2.289588023993373,0.03288461699187755,-0.4200625643700361
1765549752320658700,4.63865869140625,2.163143664294481,0.4591121337324381,-0.052691141223907466
1765549752330651600,4.648651611328125,2.0241700778901577,0.5971083995372056,0.17785130633115767
1765549752340645600,4.658645751953125,1.9590753821671008,0.5646317788243294,0.2273679091721773
1765549752350638600,4.668638671875,1.8089818513333797,0.5366232434362173,0.2309405069619417
1765549752360631800,4.6786318359375,1.847985827988386,0.5222340680778026,0.2468611296713352
1765549752370624800,4.688624755859375,2.0785218458026646,0.5776064112097025,0.2466436875283718
1765549752380618500,4.698618408203125,2.2703479014724492,0.734471043613553,0.22420973740220068
1765549752390611700,4.70861181640625,2.414170096951723,0.8357739477932453,0.22674714692533016
1765549752400604700,4.718604736328125,2.4241776962250468,0.9477578204631805,0.44158290678262707
1765549752410597600,4.72859765625,2.3965806642472742,1.1257692857921122,0.7531757440835237
1765549752420590600,4.738590576171875,2.4696359635859726,1.2368547483175991,1.0460171191632748
1765549752430584600,4.74858447265625,2.4765181243151426,1.0927578275501728,1.2529168253242968
1765549752440577800,4.758577880859375,2.5386650761485097,0.9676520229786634,1.5062731622338295
1765549752450570500,4.768570556640625,2.517873632532358,1.0346025757014752,1.8418711445003746
1765549752460563700,4.778563720703125,2.427480829423666,1.1841069084703921,2.2560317913502455
1765549752470556700,4.788556640625,2.1945640539526936,1.3674310932546854,2.6097598890691995
1765549752480550700,4.798550537109375,1.8261387378394602,1.3318664433985947,2.6181062771320343
1765549752490543600,4.808543701171875,1.467867735993862,1.289780282819271,2.3731465971678496
1765549752500536600,4.81853662109375,1.2618915744185446,1.3634429004013537,1.9631378093004226
1765549752510529800,4.82852978515625,1.000170656202361,1.558464537242055,1.5972832204580305
1765549752520522500,4.8385224609375,0.6855870395876467,1.7382523645937442,1.305882691836357
1765549752530516700,4.848516845703125,0.2611445065677166,1.9017776239305733,1.2517097876220942
1765549752540509700,4.858509765625,-0.17558219235539435,2.0623054550170896,1.254910044968128
1765549752550502700,4.868502685546875,-0.48021527364626526,2.1402783370137213,1.2370721904605626
1765549752560495600,4.87849560546875,-0.6201226337693632,2.137284415894747,1.219484511321783
1765549752570488600,4.888488525390625,-0.6942706967808305,2.0801444785684344,1.1636644244223833
1765549752580483000,4.898483154296875,-0.8816939874470233,2.035046276691556,1.2136311091184615
1765549752590475800,4.908475830078125,-1.317276192510128,1.9883885704129933,1.2615046209275722
1765549752600469000,4.918468994140625,-1.7760931426882742,1.788145399531722,1.3595096526056527
1765549752610462000,4.9284619140625,-2.3340391601383685,1.547052331867814,1.2794623024225233
1765549752620456000,4.9384560546875,-2.970294159671664,1.5066186146706342,1.1910492749541997
1765549752630449000,4.948448974609375,-3.686997199143469,1.5656734457075594,0.868221926933527
1765549752640441900,4.95844189453125,-4.54807714536786,1.3547516444236039,0.14399872108995915
1765549752650435000,4.96843505859375,-5.358448940879106,0.914212693735957,-0.955882674729824
1765549752660427800,4.978427734375,-6.291814663374423,0.3070411653459072,-2.3446955787092447
1765549752670421800,4.988421875,-6.972754607808589,-0.3167804690718651,-3.5465965025454755
1765549752680415000,4.9984150390625,-7.3865540201306334,-0.49011283667385575,-4.223254239615798
1765549752690408000,5.008407958984375,-7.669805144566297,-0.5843173070251941,-4.167162350037693
1765549752700401000,5.01840087890625,-8.052019332057236,-0.6258546015501022,-3.8782144752651453
1765549752710393900,5.028393798828125,-8.683016557192802,-0.5889397061288356,-3.636325288787484
1765549752720387800,5.038387939453125,-9.468736142006517,-0.5751011503905058,-3.267643367564678
1765549752730380800,5.048380859375,-10.099019665914774,-0.6377046138197183,-3.067248220992088
1765549752740373800,5.058373779296875,-10.679324814689158,-0.7612421461611986,-3.0961101583391426
1765549752750367000,5.068366943359375,-11.187960565525293,-0.7806880203872919,-3.383445337218046
1765549752760359700,5.078359619140625,-11.474314332151412,-0.6892337255269289,-3.8073826971948144
1765549752770354000,5.08835400390625,-11.872429853129386,-0.6035311260610818,-4.305580640646815
1765549752780347000,5.098346923828125,-12.217080325901508,-0.5524836603909731,-4.698178859508038
1765549752790339800,5.10833984375,-12.002438042789697,-0.38957974782288074,-4.795092588818073
1765549752800332800,5.118332763671875,-11.782379579848051,0.008268062129616737,-4.843067222914099
1765549752810326800,5.128326904296875,-12.058092709994316,0.4177876051753759,-4.717455806908011
1765549752820320000,5.138320068359375,-12.617858928608893,0.596934212014079,-4.318987819230556
1765549752830313000,5.14831298828125,-13.298885382282734,0.758231273907423,-4.024014108297228
1765549752840306000,5.158305908203125,-14.249548276537656,1.2198586053311824,-4.202393822416663
1765549752850299000,5.168298828125,-14.933088174337147,1.7385878801584242,-4.7894174657911055
1765549752860292900,5.17829296875,-15.111679485380648,2.441091421625018,-5.487168844294548
1765549752870286000,5.1882861328125,-15.135840113168953,3.2054443932831287,-6.290444544064998
1765549752880278800,5.19827880859375,-14.948551116406916,4.750464342540503,-6.879117123690247
1765549752890272000,5.20827197265625,-14.79434722764492,6.832499164900184,-7.1308385528743266
1765549752900265000,5.218264892578125,-14.562053552508353,8.698323431918025,-7.13305155274868
1765549752910258700,5.2282587890625,-14.515277772808075,10.174134235870838,-7.5786577236980195
1765549752920252000,5.238251953125,-14.572067581522465,11.255269430166482,-9.15852102279961
1765549752930244900,5.248244873046875,-14.74846576643586,12.16908990971446,-11.223041231256722
1765549752940237800,5.25823779296875,-14.829198760795592,13.423821090984344,-12.952443934440613
1765549752950230800,5.268230712890625,-14.797225413429736,15.03737506276369,-14.466857148510217
1765549752960224800,5.278224853515625,-14.370503391170502,16.86834662758708,-15.824009424334763
1765549752970218000,5.288218017578125,-13.556696945035457,18.56202802904844,-16.639612690758703
1765549752980210700,5.298210693359375,-12.596197716420889,19.946956785070896,-16.684246782255173
1765549752990204000,5.308203857421875,-11.399629970306158,21.49143195992708,-16.465027692747114
1765549753000198000,5.318197998046875,-10.26732456074357,23.59132217245102,-16.251503015488385
1765549753010190800,5.32819091796875,-9.472678742152452,25.462210737121104,-15.976141767519712
1765549753020183800,5.338183837890625,-8.284446278184651,27.172636352634427,-15.324389339125155
1765549753030176800,5.3481767578125,-6.833956377971172,28.281890556955336,-14.941242254698276
1765549753040170000,5.358169921875,-5.253161350977421,29.117700745105743,-14.550568866419791
1765549753050164000,5.3681640625,-3.8084862745225427,29.330815087997912,-14.249555290800332
1765549753060157000,5.378156982421875,-2.6699171283900736,29.12103953413963,-14.695504576098918
1765549753070150000,5.38814990234375,-1.6017629962205886,28.928694423031803,-15.537639291095733
1765549753080142800,5.398142822265625,-0.8928355591863393,28.879620303261277,-16.26427248069048
1765549753090135800,5.4081357421875,-0.4912883101940155,29.33749032797813,-16.522320190286635
1765549753100129800,5.4181298828125,0.188973588848114,30.06986586061716,-16.160412293243407
1765549753110123000,5.428123046875,0.9692151075769215,31.02272772622108,-15.61271060643196
1765549753120115700,5.43811572265625,1.6748218026906252,31.71360220469236,-15.072376233518122
1765549753130109000,5.44810888671875,2.6378870824009177,32.24727770423889,-14.20649590127468
1765549753140103000,5.45810302734375,3.246719822001457,32.66654590336084,-13.173269290101528
1765549753150096000,5.468095947265625,3.1905320708334446,32.71159851253032,-12.165990774655342
1765549753160088800,5.4780888671875,3.3086487471699715,32.675418945646285,-11.530241386556625
1765549753170081800,5.488081787109375,3.7807787679076195,32.685804730582234,-11.546937669813632
1765549753180075000,5.498074951171875,4.146144696450233,32.73234670152664,-12.319158890628813
1765549753190069000,5.508069091796875,4.314992027592659,32.6554002399683,-13.03021807899475
1765549753200061700,5.518061767578125,4.650333404749632,32.52360224428177,-13.018857311546801
1765549753210055000,5.528054931640625,4.780689969456196,32.357209905076026,-11.961782207274437
1765549753220048000,5.5380478515625,4.504430895864964,31.787471743023392,-10.323891082096099
1765549753230040800,5.548040771484375,4.1956116149306295,30.832924116289615,-8.9664640809834
1765549753240034800,5.558034912109375,4.0096483138144015,29.61618101263046,-8.381043196630477
1765549753250027800,5.56802783203125,3.9681577810406683,28.397516000998017,-8.87412891163528
1765549753260021000,5.57802099609375,4.396771023873985,27.48278366730213,-10.802443829357623
1765549753270013700,5.588013671875,5.149079629734159,27.19256621098518,-12.553333557206392
1765549753280008000,5.598008056640625,5.91214314610362,26.844873886299133,-13.73505795445442
1765549753290001000,5.6080009765625,6.5461798850655555,26.36985866551399,-14.195740698504448
1765549753299994000,5.617994140625,7.265422379887104,26.34101367930174,-13.883602502280473
1765549753309986800,5.62798681640625,8.037236773467063,26.239762797570226,-13.235731299233436
1765549753319980000,5.63797998046875,8.324198442858457,25.60979316191673,-12.481260839164257
1765549753329974000,5.64797412109375,8.522672850501538,25.202262162339686,-11.689189254975318
1765549753339966700,5.657966796875,8.400163492164015,24.76965049751997,-11.378310118901728
1765549753349960000,5.6679599609375,8.161665701690316,24.133127202439308,-11.298628094899653
1765549753359953000,5.677952880859375,8.202049734526872,23.44730766927004,-10.913358026969432
1765549753369945900,5.68794580078125,8.754955419722199,23.132159185314176,-10.192297669070959
1765549753379939800,5.69793994140625,9.558876431658863,22.99270862904787,-8.389737375217676
1765549753389932800,5.707932861328125,10.23037927018404,22.643428742909432,-6.055010817337036
1765549753399926000,5.717926025390625,11.03671318848133,22.2281095736742,-3.688549104760587
1765549753409918700,5.727918701171875,11.59955282319188,21.674637486767768,-1.3080492222204803
1765549753419912000,5.737911865234375,11.376771657288074,20.886961507189273,1.222119828261435
1765549753429906000,5.747906005859375,10.593623384267092,20.335923369431494,3.5269004529505965
1765549753439899000,5.75789892578125,9.491860997006297,19.5619743019104,4.709235091051459
1765549753449891800,5.767891845703125,8.982914280524849,18.54099459336996,5.395523410776257
1765549753459884800,5.777884765625,8.4560297562927,17.81905394550562,6.041149465245008
1765549753469878800,5.787878662109375,8.152601520746947,17.0605502843976,6.46849341879487
1765549753479872000,5.7978720703125,8.285776065483688,16.217847414124012,7.1861805008679625
1765549753489864700,5.80786474609375,8.051265298819542,15.50269423444271,8.053621506556867
1765549753499858000,5.81785791015625,7.62434921529293,14.47673439940214,8.575811150971054
1765549753509851000,5.827850830078125,6.932249578940868,13.51040047328472,8.911262418243288
1765549753519844900,5.837844970703125,5.931919859719276,12.125422617423533,9.100740449482203
1765549753529837800,5.847837890625,5.001148245370388,10.675109242820739,9.054423519465328
1765549753539831000,5.8578310546875,4.322747464025021,9.705643448418378,9.440845095518231
1765549753549823700,5.86782373046875,3.6943314875543116,8.93214621631801,10.285925216317176
1765549753559817000,5.87781689453125,3.2494238202631474,8.275042490023374,11.239715302681923
1765549753569811000,5.88781103515625,2.824646502330899,7.514223537710309,11.725099941790104
1765549753579803000,5.897802978515625,2.0131237832188607,6.535649138700962,11.521405753672122
1765549753589795800,5.9077958984375,1.3804863896608353,5.373172462758421,10.740041441458462
1765549753599788800,5.917788818359375,0.5516039549469948,4.847730538550019,9.742430333545803
1765549753609782000,5.927781982421875,-0.09900982480645179,4.572768519032001,8.850361667078733
1765549753619776000,5.93777587890625,-0.572103722140193,4.212800650140643,8.04556094969809
1765549753629769000,5.94776904296875,-0.6735574329674243,4.1197652235686775,7.598627914059161
1765549753639762000,5.957761962890625,-0.5361982960224151,4.05066246124804,7.193456044828891
1765549753649755000,5.9677548828125,-0.3056587710767984,4.0463814229279755,6.793500448942184
1765549753659747800,5.977747802734375,0.04284077833890915,4.275604604578018,6.480188532763719
1765549753669741800,5.987741943359375,0.3893003463596105,4.512449367147684,6.02443564633131
1765549753679735000,5.997735107421875,0.7223971594601869,4.560415233415365,5.294912580513953
1765549753689728000,6.00772802734375,0.97081019474864,4.682399106574058,4.388539494362473
1765549753699721000,6.017720947265625,1.1930284660726784,4.803619009622931,3.3861820687055584
1765549753709715000,6.02771484375,1.4278010985434055,4.893368254131079,2.6387930913299322
1765549753719708000,6.0377080078125,1.8399989208877086,4.965406485381722,2.033557499438524
1765549753729700900,6.047700927734375,2.4412352140098807,4.86110030773282,1.6503963864862918
1765549753739693800,6.05769384765625,3.2714141182750462,4.747599600759148,1.3516063321352003
1765549753749687000,6.06768701171875,3.7592654397577046,4.671994616937637,0.6305348683208227
1765549753759681000,6.077680908203125,3.876987563818693,4.327636405110359,-0.5228402172774076
1765549753769673700,6.087673828125,3.8465743053764103,4.095412288078665,-1.4857020833700894
1765549753779667000,6.0976669921875,3.700528004106879,4.043630662915111,-1.8296540524840355
1765549753789660000,6.107659912109375,4.2267163627684115,4.627907053408026,-1.5167968943357466
1765549753799652900,6.11765283203125,5.007638191911578,5.3464720873594285,-1.064310316222906
1765549753809646800,6.127646728515625,5.310248681333661,5.7552989719659084,-0.6853279502600431
1765549753819639800,6.137639892578125,5.4450896979779,5.91102437120676,-0.6274558992668986
1765549753829633000,6.147633056640625,5.65837296769619,5.860462643226981,-0.9877671747684478
1765549753839625700,6.157625732421875,5.847887823814153,5.375756049510836,-2.012694159629941
1765549753849619000,6.167618896484375,5.8885004047095775,4.6514036643296475,-3.524559150521457
1765549753859613000,6.177613037109375,5.7904328291893,4.1110295439273115,-4.872191318328678
1765549753869606100,6.187606201171875,5.507002841055393,3.849495161259174,-5.832355908161402
1765549753879598800,6.197598876953125,5.251909305089712,4.078592670702934,-6.291171104773879
1765549753889591800,6.207591796875,5.216790645435452,4.551607657581568,-6.276414265146851
1765549753899586000,6.2175859375,5.741819897189736,5.091929171013832,-5.7962038138061756
1765549753909578800,6.227578857421875,6.582658727157115,5.566116708803176,-4.997482708600163
1765549753919572000,6.237572021484375,7.027799618682264,5.538714907136559,-4.344905519819259
1765549753929565000,6.24756494140625,6.635849634596705,5.178830624875426,-4.444900264009833
1765549753939558100,6.25755810546875,5.725725086957216,4.630070953443646,-5.254874584636092
1765549753949551900,6.2675517578125,4.756214868891239,4.095222902986407,-6.16140081552267
1765549753959544800,6.277544921875,4.0294373023897405,3.8273230769395825,-6.788073163196444
1765549753969538000,6.2875380859375,3.82348627525568,3.9712159995675083,-7.093428567412495
1765549753979530800,6.29753076171875,4.177364887361228,4.553963280797005,-7.176722352170944
1765549753989524000,6.30752392578125,4.835065410505235,5.347741084381938,-6.898675226119161
1765549753999518000,6.31751806640625,5.29810874620676,6.0624476893395185,-6.392373471188545
1765549754009511000,6.327510986328125,5.263142646765709,6.499834313476085,-5.801110290548205
1765549754019503900,6.33750390625,4.810480127564072,6.65978639050126,-5.039550749000907
1765549754029496800,6.347496826171875,3.690602237898111,6.625381432074308,-4.394114371885359
1765549754039490800,6.35749072265625,2.6542227156519886,6.5030363243877884,-4.38019924377948
1765549754049484000,6.367484130859375,2.144764980908483,6.464939525705575,-4.736695344907045
1765549754059476700,6.377476806640625,1.875673753120005,6.614420477598905,-5.195742596709728
1765549754069470000,6.387469970703125,1.7586713216356933,6.7898331586062906,-5.859504611849784
1765549754079463000,6.397462890625,1.8284158889912068,7.020607661351561,-6.379479502823949
1765549754089457200,6.40745703125,1.9161046938382087,7.151244212043285,-6.363860493409633
1765549754099449900,6.417449951171875,1.8026853815376758,7.114523377889395,-5.583039786553383
1765549754109443000,6.427443115234375,1.9989631559193133,7.091976030516624,-4.393802529457211
1765549754119436000,6.43743603515625,2.261784071266651,7.254065704092383,-3.4729444063574073
1765549754129429800,6.4474296875,2.2938486040472985,7.643598690164088,-2.9299884527683258
1765549754139423000,6.457423095703125,2.2327578832685946,8.037966256785392,-2.791477515439689
1765549754149416000,6.467416015625,2.1317548388183116,7.900828069114684,-3.0471473899886012
1765549754159409000,6.477408935546875,2.119278803604841,7.4049179443389175,-4.10390889826715
1765549754169401900,6.48740185546875,2.1700246559798715,7.119079726019502,-5.701932707959413
1765549754179395800,6.497395751953125,1.6654630227148532,6.855472044208645,-6.912553529345989
1765549754189389000,6.50738916015625,1.003002153301239,6.567997164598107,-6.946113269120454
1765549754199381800,6.5173818359375,0.5075602305591106,6.324674145925044,-5.885908050128817
1765549754209375000,6.527375,-0.14937979307379573,5.979681727847456,-4.541712286511063
1765549754219368000,6.537367919921875,-0.49473698934316634,5.910318853285909,-3.3721921217978
1765549754229362000,6.54736181640625,-0.298355681521818,6.330037134262919,-2.515260819685459
1765549754239355000,6.55735498046875,0.5350210689365863,7.009208315458894,-2.1756027483731506
1765549754249347800,6.567347900390625,1.5723841953925788,7.413269593098759,-2.553799516916275
1765549754259341000,6.577341064453125,2.0625730199120937,7.393311093175411,-3.3594717564344405
1765549754269333800,6.587333740234375,1.9489744055218994,7.069519868558645,-4.11923856934607
1765549754279327700,6.59732763671875,1.4685342370785772,6.614574206855893,-4.640699314963817
1765549754289321000,6.607321044921875,0.7886587070055305,6.107450614148378,-4.645381919822096
1765549754299314000,6.61731396484375,-0.19162366496548056,5.6781239623487,-4.192465718120336
1765549754309307000,6.627306884765625,-1.1920550909958778,5.442673869007826,-3.671680095285177
1765549754319300900,6.63730078125,-2.011271871741861,5.299473020297288,-3.3467987373441455
1765549754329294000,6.647294189453125,-3.2415140700519083,4.858206924378871,-3.4063609333813187
1765549754339286800,6.657286865234375,-3.8684079515218732,4.288821813547611,-3.8072541023790833
1765549754349280000,6.667280029296875,-3.4996491656705735,4.101557658965885,-4.396514711025357
1765549754359273000,6.67727294921875,-2.7388702531069518,4.173824146014452,-5.0295191843301055
1765549754369267000,6.687266845703125,-2.428433600103855,4.055876981025934,-5.415898674806952
1765549754379260000,6.697260009765625,-2.6338655717998742,3.4359307267367836,-5.68774577717483
1765549754389252900,6.7072529296875,-2.819400126110017,2.9289330984964965,-5.61743597715199
1765549754399246000,6.71724609375,-2.492976214902103,2.985392944604158,-4.795412906813621
1765549754409240000,6.727239990234375,-1.691532698994875,3.5881624386429785,-3.3948265629321335
1765549754419232800,6.737232666015625,-0.9884592486858368,4.13560430547446,-2.580317521485686
1765549754429226000,6.74722607421875,-0.5332707181379198,4.577003380122781,-2.4039509007543325
1765549754439219000,6.757218994140625,-0.7344657829165459,4.42304849768579,-2.93630245822072
1765549754449212000,6.7672119140625,-1.0016045614629983,4.561706442269682,-3.385312300133705
1765549754459206000,6.777205810546875,-2.1395453465640544,5.041196178120375,-3.48178003924191
1765549754469198800,6.78719873046875,-4.524456031283736,5.29792169920206,-3.3849346989929674
1765549754479192000,6.797192138671875,-5.829146882987022,5.091376213306188,-3.1667215716570616
1765549754489184800,6.807184814453125,-6.142382811319828,4.649121106350422,-2.7917279830694195
1765549754499178000,6.817177978515625,-6.281847396111488,4.543039151200652,-2.4617589466005563
1765549754509172000,6.827171875,-5.952345392632484,4.788401274485886,-2.3355776217520234
1765549754519165000,6.8371650390625,-5.611750332731008,5.222724127137661,-2.632334708970785
1765549754529158000,6.847157958984375,-5.57217235558033,5.457350044614076,-3.2030063524812458
1765549754539150800,6.85715087890625,-5.7354410098075865,5.379055675578117,-3.5077912633329627
1765549754549145000,6.86714501953125,-5.729257937258482,5.029421569174528,-3.5501907276451585
1765549754559137800,6.8771376953125,-5.923509758770465,5.001614109316468,-3.2479514096230266
1765549754569131000,6.887131103515625,-6.472433096331358,4.990250419259071,-2.9043519072085617
1765549754579124000,6.8971240234375,-7.451199218520522,4.747475682118535,-3.008734072703123
1765549754589117400,6.907117431640625,-8.5632491910398,4.761522035388648,-3.1628309939593073
1765549754599111700,6.917111572265625,-8.96470993079245,4.802700725734233,-2.993535919049382
1765549754609104600,6.927104736328125,-9.18164763136506,4.5516669865533705,-2.9080244582414627
1765549754619097600,6.93709765625,-8.187968602204322,4.180836655125022,-3.1626983074903485
1765549754629090600,6.947090576171875,-8.618434487167,3.5925413843795657,-3.9535517480611797
1765549754639084500,6.95708447265625,-8.33305336496532,2.425174890568852,-4.949078450915217
1765549754649077800,6.967077880859375,-7.259331661796569,1.026874027276039,-5.694285408076643
1765549754659070700,6.97707080078125,-6.573304038834571,-0.06636983022540807,-5.830713986173272
1765549754669063700,6.987063720703125,-6.010986966693401,-0.9290528277322649,-5.398356588375568
1765549754679056600,6.997056640625,-6.243546014767885,-1.8541992956757545,-4.638361227405071
1765549754689050600,7.007050537109375,-6.638511547282338,-2.957427663835883,-3.7875387635618445
1765549754699043600,7.017043701171875,-6.794638513061404,-3.9352459837809204,-2.8966531693995
1765549754709036500,7.02703662109375,-6.916772023823857,-4.309466542169451,-2.046642606461048
1765549754719029800,7.03702978515625,-6.291622355672716,-4.304974199186265,-1.5846914499104021
1765549754729022700,7.047022705078125,-5.725204277953505,-4.213708412635326,-1.8178887958884238
1765549754739016400,7.057016357421875,-5.235689407172798,-4.052487630848586,-2.2933675425320863
1765549754749009700,7.067009765625,-4.764878652340173,-3.857118203483522,-2.759302215760946
1765549754759002600,7.077002685546875,-4.1233115178734066,-3.625428047198057,-3.364461235284805
1765549754768995600,7.08699560546875,-3.447120229271054,-3.2924989918798206,-4.057514226838946
1765549754778989600,7.096989501953125,-2.67484815505147,-2.8724799743905662,-4.648057861033082
1765549754788982500,7.106982421875,-2.008096310445666,-2.3829250638604162,-4.955968794950842
1765549754798975700,7.116975830078125,-1.5191975257366894,-1.8782453571736812,-4.758253096720576
1765549754808968400,7.126968505859375,-1.1542752493083477,-1.2952233506560324,-4.136529895886778
1765549754818961700,7.136961669921875,-0.8540108846209943,-0.6813055628761648,-3.5365322046488523
1765549754828955600,7.14695556640625,-0.8563109782569109,-0.1627943147137761,-3.061670713120699
1765549754838948600,7.156948486328125,-0.6545552108556032,0.1857148793131113,-2.869361842370033
1765549754848941600,7.166941650390625,-0.35809257653877136,0.3460530330464244,-2.8071429943442343
1765549754858934500,7.1769345703125,-0.0831128752335906,0.12047288407385348,-2.5571950045734644
1765549754868928800,7.1869287109375,0.21485154194831846,0.11424743368774652,-2.49159177480638
1765549754878921500,7.19692138671875,0.21704116094708442,-0.24915742391496895,-2.092123085653782
1765549754888914700,7.206914794921875,0.2935115294262767,-0.41960108433812854,-1.3520160819798708
1765549754898907600,7.21690771484375,-0.07290595399588345,-0.6067877897694707,-0.3186182058930397
1765549754908901600,7.226901611328125,-0.3587590776234865,-0.7113704462721944,0.7601572735339402
1765549754918894600,7.23689453125,-0.4148699641630053,-0.6516589048922061,1.691611024928093
1765549754928887600,7.246887451171875,-0.6774893655888736,-0.5039142752721906,2.398940379115939
1765549754938880800,7.256880859375,-1.1824385368667543,-0.2746455009147525,2.7604765202373263
1765549754948873500,7.26687353515625,-1.6192863779515028,0.030049101305007934,2.8565502915918826
1765549754958867500,7.276867431640625,-1.8693392894014715,0.3755053375020623,2.788670349064469
1765549754968860700,7.286860595703125,-1.847003246691823,0.6753513306468725,2.6056752501040696
1765549754978853600,7.296853515625,-1.7480466133773327,0.8182622565001249,2.3804589660078284
1765549754988846600,7.3068466796875,-1.5086083271831272,0.9957961674451827,2.1539842062830923
1765549754998839600,7.316839599609375,-1.201629121157527,1.1308914511114359,1.8455536324054003
1765549755008833500,7.32683349609375,-1.1205419065326452,1.2663079295560717,1.5579583412855862
1765549755018826800,7.33682666015625,-1.0507225203752517,1.4658587342590093,1.3691566018730401
1765549755028819500,7.3468193359375,-0.9297533772170543,1.601303562015295,1.2667220633149145
1765549755038812700,7.356812744140625,-0.756749364786595,1.7360495938524603,1.2512708116829394
1765549755048806700,7.366806640625,-0.546164248111099,1.8475445139616726,1.3525281231552362
1765549755058799600,7.376799560546875,-0.3147163761489093,1.650137151028216,1.4749281758993864
1765549755068792600,7.38679248046875,-0.003135375416278839,1.2145555304870008,1.4964432576149702
1765549755078785500,7.39678564453125,0.2518009241610765,0.8911682104960084,1.353598967257142
1765549755088779800,7.40677978515625,0.5717519860930741,0.629982202874124,1.177142914676666
1765549755098772500,7.4167724609375,0.7017188208296895,0.35687545583397146,0.979732336872816
1765549755108765700,7.426765625,0.7801891309544443,0.06979162136763334,0.5731389104068279
1765549755118758700,7.436758544921875,0.7106548453487456,-0.26957857291400433,0.03110240975022316
1765549755128751600,7.446751708984375,0.49232349846065043,-0.5978849368676543,-0.39934418599009514
1765549755138745600,7.45674560546875,0.2522963064625859,-0.6936845674559473,-0.5478934099912643
1765549755148738600,7.466738525390625,0.2364613162100315,-0.5956646304696798,-0.34079671995341776
1765549755158731800,7.476731689453125,0.318421806538105,-0.5085682385578751,-0.023351064971089363
1765549755168724500,7.486724365234375,0.4173218873597681,-0.4928431384205818,0.18024784607887268
1765549755178718500,7.496718505859375,0.5618494546294212,-0.45921530184596776,0.30311317824721334
1765549755188711700,7.506711669921875,0.7425272165581583,-0.41944998542964457,0.3164198190659284
1765549755198704600,7.51670458984375,0.9333034709140657,-0.43690293227285143,0.18413608568906784
1765549755208697600,7.526697509765625,1.1010147837638855,-0.5571674342930316,-0.09113689947426319
1765549755218691600,7.536691650390625,1.2874106310784816,-0.6544464897841215,-0.35930092941522596
1765549755228684500,7.5466845703125,1.4127083049602807,-0.711072632369399,-0.5760732102930546
1765549755238677800,7.556677734375,1.4597792682148516,-0.7275105569511652,-0.7250017890006303
1765549755248670500,7.56667041015625,1.5183347714275122,-0.76882076472193,-0.7373229259133338
1765549755258663700,7.57666357421875,1.6296294927895068,-0.8189397173702716,-0.6382791988372802
1765549755268657700,7.58665771484375,1.8878706791311501,-0.9049301938667893,-0.54047874982059
1765549755278650600,7.596650634765625,2.1427596324354408,-0.8397159634172916,-0.45232817268073555
1765549755288643600,7.6066435546875,2.3485709588378665,-0.8780436482459306,-0.45152270151674745
1765549755298636800,7.61663671875,2.565101247653365,-1.017120402763784,-0.5240139372318983
1765549755308630800,7.626630859375,2.6475954064667224,-0.9971376451820134,-0.5337251839071512
1765549755318623500,7.63662353515625,2.792505397182703,-1.048316043755412,-0.5309942976385355
1765549755328616700,7.64661669921875,3.038298020839691,-1.1919511922299861,-0.5127034386664628
1765549755338609700,7.656609619140625,3.1783126407295463,-1.0574337084516883,-0.6154571261763573
1765549755348602600,7.6666025390625,3.259735955440998,-0.7990414232015609,-0.7341518946617841
1765549755358596600,7.6765966796875,3.193016873386502,-0.6285246975421905,-0.8724702320277691
1765549755368589600,7.686589599609375,3.066750208342075,-0.3961468512535095,-0.811486478754878
1765549755378582800,7.696582763671875,3.09225465195477,-0.24949849243760108,-0.5663935277998448
1765549755388575500,7.706575439453125,3.3229040670156476,-0.016230711571872232,-0.34632746607363224
1765549755398569500,7.716569580078125,3.5291362491786478,0.22663374967873096,-0.11751169618070124
1765549755408562700,7.726562744140625,3.7293858498007055,0.4186100274741649,-0.12040391049087047
1765549755418555600,7.7365556640625,3.7556776443988085,0.33047523242533206,-0.1752659660130739
1765549755428548600,7.746548583984375,3.812182206431031,0.10989654500186442,-0.029145430463552474
1765549755438542600,7.75654248046875,3.9379771623104807,0.1570735989794135,0.3050678194463253
1765549755448535800,7.766535888671875,4.1443782712996,0.4188648790180683,0.6403606812864542
1765549755458528500,7.776528564453125,4.23686483181715,0.6235825649648904,0.9500479772269725
1765549755468521500,7.786521484375,4.330289549967646,0.9029284986555576,1.3443962546259165
1765549755478514700,7.7965146484375,4.40596467641592,1.3710405159235,1.7840642676979301
1765549755488508700,7.8065087890625,4.192815846732259,1.685402233415842,2.1954612950533625
1765549755498501600,7.816501708984375,3.832397311463952,1.8786323106646536,2.5838509563088414
1765549755508494600,7.82649462890625,3.7203058867663144,1.998057146990299,2.823083490797877
1765549755518487800,7.83648779296875,3.684805534318089,2.1409940840676427,3.0181115573793647
1765549755528481800,7.846481689453125,3.6703473853766915,2.2167302930533883,3.245568898400664
1765549755538474500,7.856474609375,3.4284079300165176,2.404676876941323,3.3849849678754804
1765549755548467700,7.8664677734375,2.9958161389410494,2.744147024466097,3.356798153311014
1765549755558460700,7.876460693359375,2.5043571483552456,2.851305376675725,3.1631653404802083
1765549755568454700,7.88645458984375,2.066839006793499,2.651844003821909,2.8893448922127485
1765549755578447600,7.896447509765625,1.6332032596230506,2.663049580708146,2.7994419184476134
1765549755588440300,7.9064404296875,1.4440098905444145,2.9028718977838754,2.9735686512976884
1765549755598433500,7.91643359375,1.4666589447259901,3.146784991304576,3.0266759721070526
1765549755608427500,7.926427490234375,1.3310650638878345,3.2978830230057237,2.7386504728764294
1765549755618420500,7.93642041015625,0.8880826655708253,3.4075141950696706,2.29929108736217
1765549755628413400,7.946413330078125,0.1648667370736599,3.5833033081740138,2.1017168434292075
1765549755638406400,7.956406494140625,-0.41998000065311786,3.7704093495845794,1.8863252032548188
1765549755648399400,7.9663994140625,-0.8960124356567859,3.83909593231976,1.6636498358130454
1765549755658393300,7.976393310546875,-1.4239663426861167,3.849195301529765,1.621579457324743
1765549755668386600,7.986386474609375,-1.7167494117073714,3.762732823607325,1.695637211704254
1765549755678379300,7.996379150390625,-1.8262755159616468,3.5380753424376246,1.8241390884548425
1765549755688372500,8.00637255859375,-1.902801998542249,3.328147228366136,1.9237655838549137
1765549755698366500,8.016366455078124,-2.0267416819438338,3.188666276961565,1.954028035649657
1765549755708359400,8.026359375,-2.339135314233601,3.16234116461575,1.8856021496772766
1765549755718352400,8.036352294921874,-2.752821329309046,3.266873552235961,1.6829320439100264
1765549755728345300,8.046345458984375,-3.126236708794534,3.2503257375389336,1.3792115474194286
1765549755738339300,8.05633935546875,-3.409928562735021,2.9914538520783185,0.7410738028794527
1765549755748332500,8.06633251953125,-3.59906114153713,2.607298467391729,-0.13304419635534287
1765549755758325200,8.0763251953125,-3.7914553524836894,2.0865455777823922,-0.9109989923864602
1765549755768318500,8.086318359375,-4.080574784430861,1.5345020623743533,-1.4542466223984956
1765549755778311400,8.0963115234375,-4.470446208676695,1.3491834889024494,-1.747128329488635
1765549755788305400,8.106305419921876,-4.942165310525894,1.262761927512288,-1.6698282321870326
1765549755798298400,8.11629833984375,-5.424875177466869,0.9619482583791017,-1.5573065993785857
1765549755808291300,8.126291259765624,-5.963409222960472,0.564766803380847,-1.545658831682801
1765549755818284500,8.136284423828124,-6.50969227514565,0.2466308280467987,-1.722832677143812
1765549755828278300,8.1462783203125,-7.058520920160412,-0.14940145691633225,-2.216033542960882
1765549755838271500,8.156271484375,-7.254707509127259,-0.5418927082717419,-2.9248393994420767
1765549755848264400,8.166264404296875,-7.170349894529581,-0.645638913950324,-3.8446021285206076
1765549755858257400,8.17625732421875,-6.95895404599309,-0.6072007544845343,-4.752602523612976
1765549755868251400,8.18625146484375,-7.071795996797085,-0.6086141284137964,-5.608603851398826
1765549755878244400,8.196244384765626,-7.7545467900455,-0.7665987047582864,-6.357679758948088
1765549755888237600,8.206237548828126,-8.456750471782684,-1.0036714308649302,-6.6931561606615775
1765549755898230300,8.216230224609374,-9.18202347894013,-1.2779898917824029,-6.885351049643755
1765549755908224300,8.226224365234375,-9.956159008944034,-1.3619009316563606,-6.841670897871255
1765549755918217500,8.236217529296875,-10.410574509292841,-1.1906453703284263,-6.439053389298915
1765549755928210400,8.24621044921875,-10.640966150200367,-0.7811649902492761,-5.874354974979162
1765549755938203400,8.256203369140625,-10.853598847055435,-0.1328507196098566,-5.4392678599566215
1765549755948197400,8.266197265625,-10.84922428523302,0.7210398996323346,-5.214473600664735
1765549755958190300,8.2761904296875,-10.907441496402024,1.5312340004891156,-5.34990089276433
1765549755968183600,8.28618359375,-11.179062973320484,2.309755782753229,-5.768103508481383
1765549755978176300,8.29617626953125,-11.54408754107952,2.8907933374553916,-6.191379189679027
1765549755988169500,8.30616943359375,-11.921764669662712,3.4652415768951177,-6.541335367643833
1765549755998163500,8.31616357421875,-12.10883154810667,4.262931585487723,-6.8638026501804585
1765549756008156400,8.326156494140625,-12.421885105609894,5.218132123172283,-6.903233912336826
1765549756018149400,8.3361494140625,-12.715714907205104,6.1068023793727155,-6.8149833819538355
1765549756028142300,8.346142333984375,-13.141511046791075,6.934994493734836,-7.137744094479084
1765549756038136600,8.356136474609375,-13.855939419329166,8.555216691231728,-7.58106244675219
1765549756048129300,8.36612939453125,-14.569308638203143,9.850599031841755,-8.52096838467121
1765549756058122500,8.37612255859375,-14.479346043205261,10.656991402328014,-9.620665656095742
1765549756068115500,8.386115478515626,-13.904068951725959,11.886238598251342,-10.82610059927702
1765549756078109400,8.396109375,-13.033959019088744,13.806631490802763,-12.005712534415721
1765549756088102400,8.406102294921874,-12.427466120612621,15.518405013793705,-12.805832985025644
1765549756098095400,8.416095458984374,-12.429154219830036,17.030318812263012,-14.041539147830008
1765549756108088600,8.426088623046875,-12.815920663797854,18.849251564246416,-15.71288129171133
1765549756118082600,8.43608251953125,-12.675862204766272,20.2932065097332,-17.23595361305475
1765549756128075300,8.4460751953125,-11.297744297802447,21.63929027905464,-18.74996350702047
1765549756138068500,8.456068359375,-9.55849240077734,22.795371701002118,-20.289746140146253
1765549756148061400,8.4660615234375,-8.159036522230506,23.694254139137268,-21.79167747378349
1765549756158055400,8.476055419921876,-7.199256840062141,24.686515118193626,-22.424492561995983
1765549756168048400,8.48604833984375,-6.657421414935588,26.31951028802395,-21.628186701238153
1765549756178041300,8.496041259765626,-6.439308240842819,28.442708895421028,-20.183704517006873
1765549756188034600,8.50603466796875,-5.510505296218395,30.19427549961805,-18.728693924498558
1765549756198028300,8.5160283203125,-3.398570425635576,31.069010169446468,-17.323469399422407
1765549756208021500,8.526021484375,-1.7072741657450794,31.229772393810748,-17.315962969315052
1765549756218014500,8.536014404296875,-1.1835538046322762,31.74493959224224,-17.058829451954363
1765549756228007400,8.54600732421875,-0.5026828337810934,32.136223221373555,-17.015221780896187
1765549756238000400,8.55600048828125,0.8462485800564289,32.626384573364255,-16.990718623280525
1765549756247994400,8.565994384765625,2.347268059545755,33.933197824048996,-16.734701542729137
1765549756257987600,8.575987548828126,3.199675162231922,35.02761686280966,-16.442113265627622
1765549756267980300,8.585980224609376,3.5366812577307223,35.899580898880956,-15.942716467779874
1765549756277973500,8.595973388671876,3.7382045315504073,36.65414254436493,-15.290160906308888
1765549756287967500,8.605967529296874,3.679427348411083,37.289985455966,-14.490589906275272
1765549756297960400,8.61596044921875,3.675580025333166,37.419036198770996,-13.451314662587642
1765549756307953400,8.625953369140625,4.242413113594055,37.63037593320608,-12.50995735681653
1765549756317946400,8.6359462890625,4.656424122840166,38.3886808568716,-11.68286239004135
1765549756327940400,8.6459404296875,4.369013540637493,38.73478328201771,-11.733040087139607
1765549756337933300,8.655933349609375,4.289840050679445,38.655133991241456,-12.244050165891647
1765549756347926300,8.66592626953125,4.746021976178884,38.044577496588225,-12.03014554940462
1765549756357919500,8.67591943359375,5.105384864914417,37.019753972101206,-11.290557016646861
1765549756367913500,8.68591357421875,5.928920093381405,36.41064007747173,-10.22868064957261
1765549756377906400,8.695906494140624,6.414321099102497,35.308603549444676,-9.45188846758008
1765549756387899400,8.7058994140625,6.733774002254009,33.974864882433415,-9.389069900095462
1765549756397892400,8.715892333984375,7.39722972792387,33.197181889081,-9.825265853142739
1765549756407886600,8.725886474609375,8.080937968027591,32.35068430269956,-10.604474448627233
1765549756417879300,8.73587939453125,8.38950473550558,31.014967613613603,-11.56725448165536
1765549756427872500,8.74587255859375,8.333961127460002,29.554481220042703,-12.516277207487821
1765549756437865500,8.755865478515625,8.613186065119505,28.41211268162727,-12.887931422519683
1765549756447858400,8.7658583984375,8.919201979070902,27.33988910806179,-12.358764924830197
1765549756457852400,8.775852294921876,9.265521846359968,26.1043033567667,-11.474778442531823
1765549756467845400,8.785845458984374,9.67033365010619,24.945121630716322,-10.911542501980065
1765549756477838600,8.795838623046874,10.325386289089918,24.282442150115966,-10.89144663941264
1765549756487831300,8.805831298828124,11.548441060113905,23.816674065625666,-11.222544387650489
1765549756497825300,8.8158251953125,12.405175962871313,23.04634201955795,-11.53811957258582
1765549756507818500,8.825818603515625,12.932055810928343,22.46268756035566,-11.511809073287248
1765549756517811200,8.835811279296875,13.357124805283545,21.74283014850616,-10.837701020699738
1765549756527804400,8.845804443359375,13.718606001347302,20.836966180920598,-9.674807580649853
1765549756537798400,8.85579833984375,13.882858990436791,19.994831465923784,-7.9348168479561805
1765549756547791400,8.865791259765626,13.687192625951766,19.132431377011535,-5.796445805868506
1765549756557784300,8.875784423828126,12.558598930388689,18.525076893270015,-4.122319584226608
1765549756567777300,8.88577734375,11.075745222187042,17.951207330501077,-3.0304356169015167
1765549756577771500,8.895771484375,10.943633922767638,17.74010140482187,-1.9416653976827858
1765549756587764500,8.905764404296875,11.932300092202425,17.935200783073903,-0.34144963090419767
1765549756597757700,8.9157578125,12.54992579458952,17.560736186796426,1.4413254737660288
1765549756607750400,8.92575048828125,12.86593118763566,17.071684257352352,3.4274683110788464
1765549756617744400,8.935744384765625,12.309663917052745,16.43478686826229,5.165996862265468
1765549756627737600,8.945737548828125,11.19285184469819,15.684538994324207,6.4513797869086265
1765549756637730600,8.95573046875,10.172186608934402,15.030639032506942,6.891844503316283
1765549756647723500,8.9657236328125,8.721229091209173,14.077770152640342,6.1216989197313785
1765549756657717500,8.975717529296874,7.4805924862653015,13.362265090781449,5.427627691045403
1765549756667710500,8.98571044921875,6.70691463690102,12.842385476875304,5.444408145454526
1765549756677703400,8.995703369140625,6.2212844985991715,11.775251919925212,5.652652251961827
1765549756687696400,9.0056962890625,6.1168216690838335,10.296159025561808,5.9769818212389945
1765549756697689600,9.015689697265625,5.867888409313559,8.981145517286658,6.569423982530832
1765549756707683600,9.02568359375,5.456798840472102,7.696166497269273,7.089229946678876
1765549756717676300,9.03567626953125,4.873065470814705,6.591176964655518,7.563455478391051
1765549756727669500,9.04566943359375,4.085045792365074,5.858924181613325,8.081131444773078
1765549756737662500,9.055662353515626,3.5154625286132095,5.015376092687249,8.500701841711997
1765549756747656700,9.06565673828125,3.4355624779462812,4.657058329090476,9.072062636530399
1765549756757649400,9.0756494140625,2.910666497182846,4.7955070148378605,9.233156284806132
1765549756767642600,9.085642578125,2.1858079160451886,4.824830139955878,9.073822047418355
1765549756777635600,9.095635498046875,1.6301479637056588,4.648039740854501,8.97537803980112
1765549756787629600,9.105629638671875,1.4790157374739645,4.143188184732199,8.64611159864366
1765549756797622500,9.11562255859375,1.5108566906318068,3.586376139748096,8.062518514239787
1765549756807615500,9.125615478515625,1.5816320623397826,3.5398382604569196,7.592612599292397
1765549756817608700,9.135608642578125,1.6799772857576607,3.8514790285527702,7.093367777135968
1765549756827602400,9.1456025390625,1.8041998777538537,4.167247690233588,6.484101322293281
1765549756837595400,9.155595458984376,2.0463807406544685,4.293813630485534,5.795472576922178
1765549756847588600,9.165588623046874,2.408634674656391,4.364130444771051,4.854234513616562
1765549756857581600,9.17558154296875,2.8803648824214934,4.297358171224594,3.8792473254442212
1765549756867574500,9.185574462890624,3.4542759462445973,4.119396390256285,3.0355145276010034
1765549756877568500,9.195568603515625,3.843107798309624,4.062276911196112,2.4122891055107116
1765549756887561500,9.2055615234375,4.085657202261686,4.1634219944655895,2.012645059791207
1765549756897554400,9.215554443359375,4.218527795615792,4.4177083057016135,1.7614356717824935
1765549756907547400,9.22554736328125,4.279498981668055,4.839565352272987,1.4319637711808084
1765549756917541400,9.235541259765625,4.381837074114382,5.192509021615982,0.9386194052398205
1765549756927534600,9.24553466796875,4.673890513686835,5.618063753661513,0.27803835822343825
1765549756937527300,9.25552734375,5.34124704618752,5.956216681107878,-0.733751204906404
1765549756947520500,9.2655205078125,5.885335218676924,5.696954919546842,-1.685547779366374
1765549756957514500,9.275514404296874,5.5972927683115,5.2358764541774985,-2.037857242459059
1765549756967507700,9.2855078125,5.642861510309577,5.480405341508984,-2.053442641864717
1765549756977500400,9.29550048828125,5.338830048173666,5.550442754331231,-1.8731556328192351
1765549756987493600,9.30549365234375,4.913679220753908,5.4206397318542,-1.9332918293520807
1765549756997487600,9.315487548828125,4.453823575177789,5.474570644006133,-2.137382323311269
1765549757007480300,9.325480224609375,4.201991671356558,5.778383494955301,-2.4587036506831645
1765549757017473500,9.3354736328125,4.484074044273793,6.376563907638192,-2.729671339868009
1765549757027466500,9.345466552734376,5.188350732892752,7.125431140872836,-2.93066036068052
1765549757037460500,9.35546044921875,5.6529626330852505,7.361807701408862,-3.1881857999682426
1765549757047453400,9.365453369140624,5.782931075257062,7.284111298266053,-3.44199864847362
1765549757057446400,9.3754462890625,5.523375299185514,7.240494859379529,-3.602822832158208
1765549757067439600,9.385439697265625,5.017365220677853,7.123830719938874,-3.7873803581297394
1765549757077433600,9.39543359375,4.382402306781709,7.124001984852552,-3.970244524186849
1765549757087426300,9.40542626953125,3.6312250430390236,7.262075992068648,-4.458334915122389
1765549757097419500,9.41541943359375,3.1442040349006652,7.36765058221817,-5.165518723359703
1765549757107412500,9.42541259765625,3.1630712324559687,7.4987056505829095,-5.898451305359601
1765549757117406700,9.43540673828125,3.317284181307256,7.642817184397578,-6.367794325727224
1765549757127399400,9.4453994140625,3.318162717707455,7.475841492345928,-6.452320282629132
1765549757137392600,9.455392578125,3.468199842178821,7.279290161719918,-6.276793035331368
1765549757147385600,9.465385498046874,3.610776421511173,7.485676657661795,-6.274847746482491
1765549757157379300,9.47537939453125,3.0700434046685694,7.7267340694904325,-6.637438365092873
1765549757167372500,9.48537255859375,2.1180416630253194,7.971097537127137,-7.061475678312778
1765549757177365500,9.495365478515625,1.548220644994825,8.56285989946127,-6.998844157832861
1765549757187358700,9.505358642578125,1.6443056683957575,8.993324615380168,-6.66114774198234
1765549757197352400,9.5153525390625,2.433362288677692,8.907508618667721,-6.518088932090997
1765549757207345400,9.525345458984376,2.776700802068412,8.686065423369406,-6.863059138336777
1765549757217338600,9.535338623046876,3.0506524755001068,8.78330297780633,-6.945404244068264
1765549757227331300,9.545331298828126,3.275090176439285,8.695455183005333,-6.75087477465868
1765549757237324500,9.555324462890624,2.559861008912325,8.222068440204858,-6.902533655112982
1765549757247318500,9.565318603515625,1.3682511774659156,7.9499413518518205,-7.024119468864798
1765549757257311500,9.5753115234375,0.48412090278267855,7.872367698305845,-6.9980725889384745
1765549757267304400,9.585304443359375,0.1847813613226637,8.04763074170947,-6.920247590979933
1765549757277297400,9.59529736328125,0.7632546550273894,8.269388409784435,-7.04105014539957
1765549757287291600,9.605291748046875,1.834486879467964,8.421556993326544,-7.438623230063915
1765549757297284600,9.61528466796875,2.595687524574995,8.47199246457815,-7.883368400269746
1765549757307277600,9.625277587890626,2.5654361786961553,8.384784136724472,-7.875349928987026
1765549757317270500,9.6352705078125,2.0438363168686626,8.639345757770538,-7.592557654234766
1765549757327264500,9.645264404296874,0.9024475102055818,9.386362394702434,-7.610568527221679
1765549757337257500,9.655257568359374,-1.6309791538327931,9.266342515093088,-7.951288090285658
1765549757347250400,9.66525048828125,-2.9579432121425864,8.902565901568531,-8.283327503287792
1765549757357243600,9.67524365234375,-2.7639737147033214,8.818910297760366,-8.189476668679713
1765549757367237600,9.685237548828125,-1.5833037949442863,8.56556272867918,-7.682049124589562
1765549757377230300,9.695230224609375,-0.026887276273220777,8.189792310500145,-7.588909653121233
1765549757387223600,9.7052236328125,1.2242923499949276,7.931067140033841,-8.413867023345828
1765549757397216500,9.715216552734375,1.5030255586147308,7.765684270131588,-9.627948798841237
1765549757407210500,9.72521044921875,0.9705816466897725,7.503998496294021,-10.513414121520519
1765549757417203500,9.735203369140624,-0.0843394944190979,7.294286070799827,-10.78708259409666
1765549757427196400,9.745196533203124,-1.7026524972938,7.0334344096988435,-10.199495471620558
1765549757437189600,9.755189697265624,-2.95414118951112,6.759217071068287,-9.280982450342178
1765549757447183600,9.76518359375,-3.636858957272768,6.8598588809907435,-8.726769774201513
1765549757457176300,9.77517626953125,-4.176015518578887,7.057624848103523,-8.32976952098906
1765549757467169500,9.78516943359375,-4.205668314042687,6.892228534197807,-8.036892490074038
1765549757477162500,9.79516259765625,-3.7720220454782245,6.494757156342268,-7.8898969252556554
1765549757487156500,9.805156494140626,-3.1441900063753128,6.314528014963865,-7.400373871168494
1765549757497149400,9.8151494140625,-2.898355881664157,6.0119309695452445,-7.035862513628602
1765549757507142700,9.825142578125,-2.8732039047509432,5.37076949326992,-6.866928673246503
1765549757517135400,9.83513525390625,-2.8394039264798163,4.613979065820574,-6.646539370915293
1765549757527129300,9.84512939453125,-2.8131612317204473,3.850420459410548,-6.545558538296818
1765549757537122600,9.85512255859375,-2.828115639746189,3.144129800620675,-6.615879444235563
1765549757547115500,9.865115478515625,-2.9290754295766352,2.429186025906354,-6.905467954999208
1765549757557108500,9.8751083984375,-3.157328304889798,1.8637213033892213,-7.73072927660644
1765549757567102500,9.8851025390625,-3.3513667759120462,1.452900322356075,-8.844256335940957
1765549757577095400,9.895095458984375,-3.644493397673964,1.111720886695385,-9.557930090719461
1765549757587088100,9.905088134765625,-4.008058414274454,0.7602640218440443,-9.247747704738378
1765549757597081000,9.9150810546875,-4.444523831912875,0.3397100937604904,-8.159833225566148
1765549757607075300,9.925075439453124,-4.583807214918733,0.02485109427049756,-7.095814001244306
1765549757617068000,9.935068115234374,-4.296724549496173,-0.06626271658912301,-6.244404677423835
1765549757627061200,9.945061279296874,-4.222085780358314,-0.40360827317535874,-5.631931535494327
1765549757637054200,9.95505419921875,-4.305189010980725,-0.9865437704533337,-5.322920531380176
1765549757647048200,9.965048095703125,-4.561064052712917,-1.3358346163772046,-5.117946240323782
1765549757657041200,9.975041259765625,-5.2249096544831986,-1.4210022321835158,-4.927056004199385
1765549757667034000,9.9850341796875,-5.434747167661786,-1.2405895509317517,-4.589641912421584
1765549757677027300,9.99502734375,-5.093270064228773,-1.148272794023156,-4.413762782946229
1765549757687021300,10.005021240234376,-5.0174394549578425,-1.022127709531784,-4.372037272372841
1765549757697014000,10.015013916015626,-5.4044180803716175,-0.835980430150777,-4.197876637253165
1765549757707007200,10.02500732421875,-5.621818722280859,-1.0207238340832292,-4.161672520449757
1765549757717000200,10.035000244140624,-5.921202650871873,-1.505525850997865,-4.204859920269251
1765549757726994200,10.044994140625,-6.211424198842049,-2.005029031829536,-4.49457118062973
1765549757736987100,10.054987060546875,-5.905352755311132,-1.83845782892555,-5.233862191745638
1765549757746980000,10.06497998046875,-5.8899774915248155,-1.456584709957242,-5.626362795451283
1765549757756973300,10.074973388671875,-5.896754438313842,-1.1556427382692693,-5.835145831140875
1765549757766967000,10.084967041015625,-5.647873785513639,-0.9734592479526996,-6.030960664185881
1765549757776960300,10.094960205078126,-5.559457250913978,-0.8929001488551497,-6.055177990597486
1765549757786953200,10.104953125,-5.586206726151705,-0.6945932067334651,-5.846732224038243
1765549757796946200,10.1149462890625,-5.979896247380972,-0.4706409512236714,-5.126031347101926
1765549757806940200,10.124940185546874,-5.9871717913419005,-0.3229619341857731,-4.134192392849922
1765549757816933000,10.13493310546875,-5.443471741387247,-0.05998845862522721,-3.2426959733128546
1765549757826926300,10.14492626953125,-5.290184382948279,0.2857379728153348,-2.410307576304674
1765549757836919000,10.1549189453125,-5.2928673384219405,0.5420727410137653,-1.857238224980235
1765549757846913000,10.1649130859375,-5.603136233642697,0.7440507728636264,-1.5142214908897875
1765549757856906200,10.17490625,-5.743443114477396,0.9642613576270639,-1.4098954394966363
1765549757866899200,10.184899169921875,-5.788541900876164,1.1540877639122307,-1.5619564710110425
1765549757876892200,10.19489208984375,-5.491781891047954,1.0394009158939121,-2.1005361092120407
1765549757886886100,10.20488623046875,-5.803496308901906,0.7088439965344965,-2.4405828875809905
1765549757896879000,10.214879150390624,-5.842276998195052,0.3534777762196958,-2.301221763163805
1765549757906872300,10.224872314453124,-5.58229861279726,0.14717581675611435,-1.9705571456462143
1765549757916865000,10.234864990234374,-4.798649989038705,0.10678528111353516,-1.299239600560069
1765549757926858200,10.244858154296875,-4.108205426417291,0.8520254098922013,0.012211246797442435
1765549757936852200,10.254852294921875,-4.021811045295,1.0971230370223521,1.0854425361007451
1765549757946845000,10.264844970703125,-3.334733621019125,0.4145388325124979,1.1772025359094143
1765549757956838100,10.274838134765625,-2.445611529397964,-0.6800624309472739,0.9257435570538043
1765549757966831000,10.2848310546875,-2.331193707579374,-1.7399007163226603,0.25013036060035226
1765549757976825300,10.294825439453126,-1.8207886089831589,-1.4883490907475352,-0.11339900016486644
1765549757986818000,10.304818115234376,-1.043092171627283,-0.03938698462322354,-0.2436860067665577
1765549757996811300,10.314811279296874,0.33686581024527545,1.5712174897007642,0.06846621798276901
1765549758006804200,10.32480419921875,1.7707552887916564,3.232635182547569,0.8096955036848783
1765549758016798200,10.334798095703125,3.13334011105895,3.9200995603144166,1.9370149415284394
1765549758026791200,10.344791259765625,3.2663819693267344,3.0146514800533653,2.960207649943232
1765549758036784000,10.3547841796875,1.8535194967180488,2.101751622481644,3.3050971921682355
1765549758046777300,10.36477734375,1.174821193730831,1.3487798765376209,3.051729749342799
1765549758056771300,10.374771240234375,0.9753449155688285,0.594162993735075,2.4965853453099727
1765549758066764000,10.384763916015626,0.1657289068609476,0.1729240790620446,1.6129729570209979
1765549758076757200,10.39475732421875,-0.32271921147108074,0.20296353575587273,0.6995195572197437
1765549758086750200,10.404750244140626,-0.22985914146602152,0.5605041775003076,-0.5801110875070095
1765549758096744000,10.414743896484374,-0.563084549382329,1.0031658194303512,-1.9829577775359153
1765549758106737200,10.424737060546875,0.04617898285090923,1.1795786173909901,-2.5511837814599274
1765549758116730000,10.434730224609375,0.584705429559946,0.8613248608961701,-2.453946811544895
1765549758126723000,10.44472314453125,2.416052257436514,-0.11855243740528822,-2.0035747413679954
1765549758136717000,10.454717041015625,9.729295542162657,-2.0935311988860366,-0.634967297810316
1765549758146710300,10.464710205078125,3.6327427541255948,-0.8785252942830324,-0.3387786581292748
1765549758156703200,10.474703125,-3.9430420444846153,0.5991749766781925,-1.019347138902545
1765549758166696200,10.4846962890625,-4.276050594779849,-0.33419980590641496,-1.3068933301836252
1765549758176690200,10.494690185546874,-3.4747125850737093,-0.6547288138568401,-1.3201543782949448
1765549758186683100,10.50468310546875,-3.5895834113568066,0.06470774223208427,-1.36057757409811
1765549758196676400,10.51467626953125,-4.021798770335317,0.2895703905850649,-1.3570534916251897
1765549758206669000,10.5246689453125,-3.7285038062691687,1.2004144846707583,-1.0039411877170203
1765549758216662300,10.534662353515625,-2.114723039996624,1.2007926703333853,-0.5743766355082393
1765549758226656300,10.54465625,-0.11445581574141979,0.25777882952690123,-0.15409414477720856
1765549758236649200,10.554649169921875,1.2479437130868434,-0.3517869005233049,0.09785495568290352
1765549758246642200,10.56464208984375,1.5896657311916351,-0.3308116247728467,0.2666512872904539
1765549758256635100,10.57463525390625,1.3799433688253164,-0.16942805363982916,0.35845366493612524
1765549758266629000,10.584629150390626,0.39101650262773036,-0.009238368466496467,0.32172201712727544
1765549758276622000,10.5946220703125,0.7732137389838695,0.1590665263622999,0.6042283145450055
1765549758286615000,10.604614990234374,1.9345885911643503,0.367670990614593,1.1131373293645679
1765549758296608300,10.614608154296874,-3.62398661621809,0.8833750724017619,0.508998300538212
1765549758306602200,10.624602294921875,-3.437876015585661,2.704219210964441,0.11427651365175842
1765549758316595200,10.63459521484375,-1.5238298617124557,2.2958584825649857,0.29275808071047066
1765549758326588200,10.644588134765625,-0.6987374669313431,0.7790729864060878,0.004371785343438387
1765549758336581000,10.6545810546875,-2.2182833677142857,0.19982465320825576,-0.25907310712113973
1765549758346575400,10.664575439453126,-3.260205911040306,0.45913756043463944,-0.6457225005805493
1765549758356568000,10.674568115234376,-3.332580826899409,1.4688511940732598,-0.9206500333070754
1765549758366561300,10.684561279296876,-2.7024972094774244,2.202791784071922,-0.7055939086973667
1765549758376554200,10.69455419921875,-1.1684662717461585,2.166023603644967,-0.1046954692274332
1765549758386548200,10.70454833984375,0.7260714640587568,1.6112404341399669,0.5445796458007768
1765549758396541200,10.714541259765625,2.99967573697865,1.12087771435827,0.4834911535117775
1765549758406534100,10.7245341796875,4.211433453440666,1.0221811932846903,0.21903763199392706
1765549758416527400,10.73452734375,4.107616520613432,1.083935930930078,-0.16260679278504103
1765549758426520000,10.74452001953125,3.7604409132778644,1.3112114856436847,-0.09806816917532123
1765549758436514000,10.75451416015625,2.6524060216188428,1.4901795210450888,0.5014909936480224
1765549758446507300,10.76450732421875,1.059077091744542,1.1417983373120426,0.7118518000483512
1765549758456500000,10.7745,0.44873219401538367,0.8600453424796461,0.35539343711528926
1765549758466493200,10.7844931640625,1.0078297195881605,0.9449921551421284,-0.11201850559189915
1765549758476487200,10.794487060546874,1.989014008834958,0.8626704302862286,-0.6250031723525374
1765549758486480100,10.804480224609375,2.5835867524147034,0.5171937358230352,-0.9551267417959869
1765549758496473000,10.81447314453125,2.5378175194084642,0.2332984682649374,-1.263510846183449
1765549758506466000,10.824466064453125,1.4487521166354418,0.23678251098841427,-1.5584589842841028
1765549758516460300,10.834460205078125,-0.01016015948653221,0.6111749188125133,-1.5711794957779346
1765549758526453200,10.844453369140625,-0.5950929680615663,0.9583896891146898,-1.1646887259688228
1765549758536446200,10.8544462890625,-0.49831426330804823,1.2545754061862826,-0.731882488425076
1765549758546439200,10.864439208984376,-0.25475860492289065,1.4015040432482957,-0.5208141913425177
1765549758556433200,10.87443310546875,0.3979015859663486,1.1526847652465104,-0.7046190723158419
1765549758566426400,10.88442626953125,1.3220137424260376,0.6724982793033123,-1.042133190402016
1765549758576419000,10.894419189453124,2.125651261246204,0.20070611221790313,-1.364930508610606
1765549758586412500,10.90441259765625,2.4096628486603495,-0.05051262814104557,-1.5184803173780441
1765549758596405500,10.914405517578125,1.8847364727586506,0.06164192492067813,-1.4375269582659005
1765549758606399500,10.9243994140625,1.0264444036871194,0.35909167057871816,-1.1308075722202657
1765549758616392700,10.934392822265625,0.30678689832389355,0.5987082359492778,-0.9559475566595792
1765549758626385700,10.9443857421875,-0.07930851451456546,0.8618114753693342,-0.7638812624931335
1765549758636378600,10.954378662109375,-0.188982941198349,1.0312339760512113,-0.672787909899652
1765549758646372600,10.96437255859375,0.11121113473176955,0.9987392351597547,-0.7970644240401685
1765549758656365600,10.974365478515624,0.8383627952426671,0.6850345202714204,-1.0288191699944436
1765549758666358800,10.98435888671875,1.5558125614285467,0.3200169667750597,-1.0791693010501562
1765549758676351500,10.9943515625,1.7693208720743656,0.17165303621292113,-0.9176675103649496
1765549758686345500,11.004345458984375,1.5940379549264907,0.2550128719449043,-0.6712880267307162
1765549758696338700,11.014338623046875,1.4739245518147945,0.30877602631449697,-0.4647891564555466
1765549758706331600,11.02433154296875,1.4128607190430162,0.2406055764079094,-0.19739903349652885
1765549758716324600,11.03432470703125,1.273088675737381,0.29323884996473787,0.04507555165365338
1765549758726318600,11.044318603515626,1.098850299206376,0.43814474902749057,0.1320642454072833
1765549758736311600,11.0543115234375,0.9978151060521602,0.5172773224532604,0.10852627956196666
1765549758746304500,11.064304443359376,0.8995487930893897,0.45389644491076464,-0.012281973946094512
1765549758756297500,11.07429736328125,0.815382317149639,0.2545160283386707,-0.24512626870274543
1765549758766291700,11.084291748046875,0.23797230529487132,0.06025660804212093,-0.6565300180599093
1765549758776284700,11.09428466796875,-0.28400691123902794,-0.04022971905767917,-0.9693401221960782
1765549758786277600,11.104277587890625,-0.22403379631340503,-0.13112228838205336,-1.0290483025752006
1765549758796270600,11.1142705078125,-0.0062982233613729476,-0.03952946183383465,-0.7471255041338503
1765549758806263800,11.124263916015625,-0.2101496478676796,0.3122515934705734,-0.36560207538604733
1765549758816257800,11.1342578125,-0.5100093772768974,0.6180354522317647,-0.23170754581168293
1765549758826250500,11.14425048828125,0.7199585341364145,0.23831834225356577,-0.10136997806653379
1765549758836243700,11.15424365234375,1.0123568416237831,0.07884440413415432,0.36998072886168953
1765549758846236700,11.164236572265626,-0.012799860340356826,0.23604046044945715,0.5402180530577898
1765549758856230700,11.174230712890624,-0.12960136242508888,0.27358137881457806,0.25266134038269517
1765549758866223600,11.1842236328125,-0.21497136893570423,-0.4774924245536327,-0.6136788644574582
1765549758876216600,11.194216552734375,-0.2008458129495382,-0.9603893384993075,-1.2936021791949868
1765549758886209800,11.204209716796875,-0.1511100143998861,-0.887522839730978,-1.4980229280218482
