time,seconds_elapsed,z,y,x
1765549730101019100,0.08601904296875,-0.019824622198939323,-0.0388493537902832,-0.007377251982688904
1765549730111012000,0.09601220703125,-0.019140969961881638,-0.008055292069911957,-0.07030823826789856
1765549730121005000,0.106005126953125,-0.0265517495572567,-0.01162499375641346,-0.1243099570274353
1765549730130998000,0.115998046875,-0.03616420179605484,-0.04183128848671913,-0.15236151218414307
1765549730140992300,0.1259921875,-0.0379040464758873,-0.0920177549123764,-0.15833444893360138
1765549730150985000,0.13598486328125,-0.0419665090739727,-0.1103997528553009,-0.14779822528362274
1765549730160978200,0.145978271484375,-0.04515670984983444,-0.11361471563577652,-0.13525472581386566
1765549730170971100,0.15597119140625,-0.048333436250686646,-0.11676628142595291,-0.1305394172668457
1765549730180964000,0.165964111328125,-0.04380206763744354,-0.10690139979124069,-0.14132282137870789
1765549730190958000,0.1759580078125,-0.03221839666366577,-0.11759164184331894,-0.14897358417510986
1765549730200951000,0.185950927734375,-0.022211570292711258,-0.12579497694969177,-0.1370902955532074
1765549730210944300,0.1959443359375,-0.01756468415260315,-0.14087684452533722,-0.10853587090969086
1765549730220937000,0.20593701171875,-0.021284587681293488,-0.16515982151031494,-0.08121556043624878
1765549730230930200,0.21593017578125,-0.029315020889043808,-0.17461444437503815,-0.07313501089811325
1765549730240924200,0.225924072265625,-0.03890346363186836,-0.17013713717460632,-0.09381179511547089
1765549730250917000,0.235917236328125,-0.04374697431921959,-0.17816464602947235,-0.14036495983600616
1765549730260910000,0.24591015625,-0.040909379720687866,-0.19260962307453156,-0.1978149265050888
1765549730270903000,0.255903076171875,-0.04216752201318741,-0.19832682609558105,-0.25526902079582214
1765549730280896300,0.265896240234375,-0.04660540819168091,-0.21411830186843872,-0.29815709590911865
1765549730290890000,0.275889892578125,-0.04715432971715927,-0.22949852049350739,-0.323956161737442
1765549730300883000,0.285883056640625,-0.05582132190465927,-0.2811603844165802,-0.3465387225151062
1765549730310876200,0.295876220703125,-0.06422648578882217,-0.33531102538108826,-0.38539400696754456
1765549730320868900,0.305868896484375,-0.073149673640728,-0.3722362816333771,-0.4369983375072479
1765549730330862000,0.315862060546875,-0.08371211588382721,-0.40461692214012146,-0.5026141405105591
1765549730340856000,0.32585595703125,-0.08982353657484055,-0.38643980026245117,-0.5596340298652649
1765549730350849000,0.33584912109375,-0.04856260493397713,-0.40703463554382324,-0.5791337490081787
1765549730360842000,0.345842041015625,-0.08743677288293839,-0.45361199975013733,-0.561247706413269
1765549730370835000,0.3558349609375,-0.17629529535770416,-0.45369231700897217,-0.40645813941955566
1765549730380828200,0.365828125,-0.22344203293323517,-0.5204015970230103,-0.251171350479126
1765549730390822100,0.375822265625,-0.2441207319498062,-0.5678276419639587,-0.13351154327392578
1765549730400815000,0.385815185546875,-0.255023717880249,-0.6241521835327148,-0.07321970909833908
1765549730410808000,0.39580810546875,-0.25281795859336853,-0.7502080798149109,-0.050455790013074875
1765549730420801300,0.40580126953125,-0.23379312455654144,-0.8762224912643433,-0.027771515771746635
1765549730430794000,0.4157939453125,-0.23304684460163116,-1.0435770750045776,-0.0061470577493309975
1765549730440787200,0.425787109375,-0.2520519495010376,-1.1835376024246216,-0.006474893540143967
1765549730450781200,0.43578125,-0.2651618421077728,-1.2170765399932861,-0.035982951521873474
1765549730460774100,0.445774169921875,-0.3135456144809723,-1.0468312501907349,-0.03504551947116852
1765549730470767000,0.45576708984375,-0.3058084547519684,-0.9314616322517395,-0.03513777628540993
1765549730480760000,0.465760009765625,-0.2728355824947357,-0.7988942265510559,-0.04061669856309891
1765549730490753300,0.475753173828125,-0.23377905786037445,-0.7100368738174438,-0.04918545112013817
1765549730500747000,0.4857470703125,-0.20615676045417786,-0.7538631558418274,-0.06160776689648628
1765549730510740000,0.495739990234375,-0.20250430703163147,-0.8463508486747742,-0.05842581018805504
1765549730520733200,0.505733154296875,-0.2174885869026184,-0.9121676683425903,-0.04014667496085167
1765549730530726100,0.51572607421875,-0.2578154504299164,-1.0157922506332397,0.03524244204163551
1765549730540719000,0.525718994140625,-0.323976069688797,-1.092670202255249,0.14537958800792694
1765549730550713000,0.535713134765625,-0.41688063740730286,-1.1246228218078613,0.26950907707214355
1765549730560705300,0.545705322265625,-0.5132836103439331,-1.0841025114059448,0.37323495745658875
1765549730570698200,0.5556982421875,-0.5942844152450562,-1.0456875562667847,0.43190041184425354
1765549730580691500,0.56569140625,-0.6422186493873596,-0.9708817005157471,0.4393974840641022
1765549730590684200,0.57568408203125,-0.6263038516044617,-0.8041913509368896,0.40455856919288635
1765549730600678100,0.58567822265625,-0.5694022178649902,-0.561489999294281,0.29494819045066833
1765549730610671400,0.59567138671875,-0.4837997853755951,-0.30320262908935547,0.08607711642980576
1765549730620664300,0.605664306640625,-0.40424370765686035,-0.15432101488113403,-0.1534806191921234
1765549730630657300,0.6156572265625,-0.34872403740882874,-0.13664759695529938,-0.3168807327747345
1765549730640650200,0.625650146484375,-0.33736780285835266,-0.1763976812362671,-0.3142918646335602
1765549730650644200,0.635644287109375,-0.3540760576725006,-0.2715412676334381,-0.16157682240009308
1765549730660637200,0.64563720703125,-0.3708520829677582,-0.3481263518333435,0.0627143383026123
1765549730670630100,0.655630126953125,-0.39138126373291016,-0.3803829550743103,0.30256253480911255
1765549730680623400,0.665623291015625,-0.3728773295879364,-0.3475610911846161,0.510338306427002
1765549730690616000,0.675615966796875,-0.29656773805618286,-0.2612399160861969,0.7150010466575623
1765549730700610000,0.685610107421875,-0.2066463828086853,-0.19984790682792664,0.9393150806427002
1765549730710603300,0.695603271484375,-0.1273655742406845,-0.15467707812786102,1.147071123123169
1765549730720596200,0.70559619140625,-0.06205687299370766,-0.1826932728290558,1.2101191282272339
1765549730730589200,0.715589111328125,-0.030920926481485367,-0.2730586528778076,1.1167429685592651
1765549730740582100,0.72558203125,-0.03484243154525757,-0.40868014097213745,0.9599916934967041
1765549730750576400,0.735576416015625,-0.058529216796159744,-0.48614275455474854,0.7933191061019897
1765549730760569300,0.7455693359375,-0.08499864488840103,-0.5966506600379944,0.6345661878585815
1765549730770562000,0.75556201171875,-0.10276221483945847,-0.7861747741699219,0.5721349120140076
1765549730780555300,0.76555517578125,-0.1449698656797409,-0.9826659560203552,0.6525784134864807
1765549730790548200,0.77554833984375,-0.2113928645849228,-1.1266555786132812,0.7953599095344543
1765549730800542500,0.78554248046875,-0.27034860849380493,-1.0773484706878662,0.9125869274139404
1765549730810535200,0.79553515625,-0.29352205991744995,-0.8682188987731934,0.9548364281654358
1765549730820528400,0.8055283203125,-0.2879025340080261,-0.5791634321212769,0.9103957414627075
1765549730830521300,0.815521240234375,-0.2720481753349304,-0.2178468555212021,0.82306969165802
1765549730840514300,0.825514404296875,-0.23156680166721344,0.216234028339386,0.7402169108390808
1765549730850508300,0.83550830078125,-0.177590012550354,0.6207481026649475,0.6407004594802856
1765549730860501200,0.845501220703125,-0.12413904070854187,0.9555684328079224,0.4731847047805786
1765549730870494500,0.855494384765625,-0.07330849766731262,1.1815437078475952,0.22871050238609314
1765549730880487200,0.865487060546875,-0.0313384085893631,1.2333781719207764,-0.062220681458711624
1765549730890480400,0.87548046875,0.014142422005534172,1.2491397857666016,-0.32766106724739075
1765549730900474400,0.885474365234375,0.08718413859605789,1.2377514839172363,-0.5208086967468262
1765549730910467000,0.895467041015625,0.17643378674983978,1.2372946739196777,-0.6279985308647156
1765549730920460300,0.905460205078125,0.28636670112609863,1.155245065689087,-0.6097151041030884
1765549730930453200,0.915453369140625,0.3795585036277771,0.9470160007476807,-0.43368396162986755
1765549730940446200,0.9254462890625,0.420579731464386,0.6995066404342651,-0.13193504512310028
1765549730950440200,0.935440185546875,0.4168795347213745,0.448671817779541,0.24761293828487396
1765549730960433200,0.94543310546875,0.40157434344291687,0.19422994554042816,0.6311065554618835
1765549730970426400,0.95542626953125,0.40146222710609436,-0.03985179588198662,0.9039173126220703
1765549730980419000,0.965419189453125,0.39840197563171387,-0.18151386082172394,0.9481905102729797
1765549730990412300,0.975412353515625,0.39734378457069397,-0.1833389401435852,0.7836059331893921
1765549731000406300,0.98540625,0.3972780108451843,-0.07090402394533157,0.47735920548439026
1765549731010399200,0.995399169921875,0.38989540934562683,0.125656858086586,0.1087724044919014
1765549731020392200,1.00539208984375,0.3814941942691803,0.34459131956100464,-0.24326713383197784
1765549731030385200,1.01538525390625,0.3822658956050873,0.5491078495979309,-0.5310849547386169
1765549731040378400,1.02537841796875,0.41371408104896545,0.6516579389572144,-0.6924240589141846
1765549731050372400,1.035372314453125,0.4727122485637665,0.603388786315918,-0.7126281261444092
1765549731060365300,1.045365234375,0.5225245356559753,0.42906033992767334,-0.6209919452667236
1765549731070358300,1.055358154296875,0.5252671241760254,0.1895022690296173,-0.46778377890586853
1765549731080351200,1.065351318359375,0.49007555842399597,0.026106957346200943,-0.32412993907928467
1765549731090344200,1.07534423828125,0.4465392529964447,0.002542242407798767,-0.24607162177562714
1765549731100338200,1.085338134765625,0.40095579624176025,0.11517637968063354,-0.22429335117340088
1765549731110331400,1.095331298828125,0.33124613761901855,0.2430085986852646,-0.22462140023708344
1765549731120324000,1.105323974609375,0.2604808807373047,0.3292795717716217,-0.24127094447612762
1765549731130317300,1.1153173828125,0.21355846524238586,0.40938010811805725,-0.23177661001682281
1765549731140310300,1.125310302734375,0.18344184756278992,0.41922101378440857,-0.18231239914894104
1765549731150304300,1.13530419921875,0.14848071336746216,0.35647153854370117,-0.10652820020914078
1765549731160297200,1.145297119140625,0.09457512944936752,0.2528415620326996,0.011544911190867424
1765549731170290200,1.155290283203125,0.04513009637594223,0.14334221184253693,0.08779431134462357
1765549731180283400,1.165283447265625,0.026391299441456795,0.11425916105508804,0.05790698528289795
1765549731190276000,1.175276123046875,0.04223215579986572,0.190578430891037,-0.054493777453899384
1765549731200270000,1.18527001953125,0.03924968093633652,0.39441701769828796,-0.18949128687381744
1765549731210263300,1.19526318359375,0.012363879010081291,0.6490554809570312,-0.3167338967323303
1765549731220256300,1.20525634765625,-0.020787950605154037,0.8422273397445679,-0.39851105213165283
1765549731230249200,1.215249267578125,-0.024970531463623047,0.8863489627838135,-0.42911025881767273
1765549731240242200,1.2252421875,-0.005513210315257311,0.820108950138092,-0.3791605532169342
1765549731250236200,1.235236083984375,0.039254020899534225,0.6185659170150757,-0.2856292426586151
1765549731260229400,1.2452294921875,0.059576068073511124,0.429633229970932,-0.1875428855419159
1765549731270222000,1.25522216796875,0.04413039609789848,0.25144776701927185,-0.10405945777893066
1765549731280215300,1.26521533203125,-0.08365340530872345,0.14392238855361938,0.07860809564590454
1765549731290209300,1.275209228515625,-0.2220037877559662,0.04606286436319351,0.36599597334861755
1765549731300202200,1.2852021484375,-0.26221993565559387,-0.17367134988307953,0.6082168817520142
1765549731310195200,1.2951953125,-0.22850529849529266,-0.33951741456985474,0.7735264897346497
1765549731320188200,1.305188232421875,-0.20944824814796448,-0.43157169222831726,0.8337011337280273
1765549731330181400,1.315181396484375,-0.23076851665973663,-0.3950290381908417,0.7448279857635498
1765549731340174000,1.325174072265625,-0.24914327263832092,-0.3139230012893677,0.5547602772712708
1765549731350168300,1.335168212890625,-0.2740638256072998,-0.18995225429534912,0.3063288927078247
1765549731360161300,1.345161376953125,-0.35569342970848083,-0.14897233247756958,0.106434665620327
1765549731370154200,1.355154296875,-0.4033909738063812,-0.021376948803663254,0.04014433175325394
1765549731380147200,1.365147216796875,-0.4319666922092438,-0.05876639857888222,0.05185185372829437
1765549731390141200,1.37514111328125,-0.46245071291923523,-0.12883472442626953,0.18079650402069092
1765549731400134400,1.385134521484375,-0.493764728307724,-0.1775234341621399,0.45384401082992554
1765549731410127000,1.395127197265625,-0.526246190071106,-0.20637932419776917,0.7705363631248474
1765549731420120300,1.405120361328125,-0.5195286273956299,-0.2177387773990631,0.9639852046966553
1765549731430113300,1.41511328125,-0.49738776683807373,-0.18300481140613556,0.9581795930862427
1765549731440107300,1.425107177734375,-0.4949139356613159,-0.07802805304527283,0.8134725093841553
1765549731450100200,1.435100341796875,-0.5010195374488831,0.021935243159532547,0.6275795102119446
1765549731460093200,1.44509326171875,-0.5264338254928589,0.02851618081331253,0.40933719277381897
1765549731470086400,1.45508642578125,-0.6177416443824768,-0.1519465446472168,0.2336902767419815
1765549731480079000,1.4650791015625,-0.7565096616744995,-0.40887928009033203,0.19178703427314758
1765549731490073000,1.475072998046875,-0.8672520518302917,-0.6418282389640808,0.3041350841522217
1765549731500066300,1.48506640625,-0.8940737843513489,-0.8197055459022522,0.5242853164672852
1765549731510059300,1.495059326171875,-0.8696990609169006,-0.910518229007721,0.760137677192688
1765549731520052200,1.50505224609375,-0.8528891801834106,-0.9167577624320984,0.8998942375183105
1765549731530045200,1.515045166015625,-0.8810034990310669,-0.9842920303344727,0.9104495048522949
1765549731540039400,1.525039306640625,-0.9194608926773071,-1.123153805732727,0.8343310356140137
1765549731550032100,1.5350322265625,-0.9096856117248535,-1.1640738248825073,0.745972752571106
1765549731560025000,1.545025146484375,-0.8147007822990417,-1.0613114833831787,0.6650358438491821
1765549731570018300,1.555018310546875,-0.6597984433174133,-1.0088791847229004,0.5209875106811523
1765549731580011300,1.56501123046875,-0.5236499309539795,-0.9708111882209778,0.30117419362068176
1765549731590005500,1.575005615234375,-0.42329147458076477,-0.9092311263084412,0.09443841874599457
1765549731599998200,1.584998291015625,-0.4104875326156616,-0.8854475021362305,0.004310389515012503
1765549731609991400,1.594991455078125,-0.4124816954135895,-1.003391981124878,0.02435360476374626
1765549731619984400,1.604984375,-0.43386849761009216,-1.3455325365066528,0.08816853910684586
1765549731629977300,1.614977294921875,-0.3866301476955414,-1.8292893171310425,0.12856070697307587
1765549731639971300,1.624971435546875,-0.2107110321521759,-2.1966490745544434,0.10924160480499268
1765549731649964300,1.63496435546875,-0.0642281249165535,-2.4949588775634766,0.08585638552904129
1765549731659957500,1.64495751953125,0.01163574680685997,-2.429164171218872,0.15339148044586182
1765549731669950200,1.6549501953125,0.09276926517486572,-2.0954430103302,0.40268343687057495
1765549731679943400,1.664943359375,0.20897231996059418,-1.9547698497772217,0.866969883441925
1765549731689937400,1.6749375,0.24885143339633942,-2.1851842403411865,1.3611623048782349
1765549731699930400,1.684930419921875,0.24042865633964539,-2.143237352371216,1.7421096563339233
1765549731709923300,1.69492333984375,0.2050565928220749,-1.5753110647201538,1.9191797971725464
1765549731719916300,1.704916259765625,0.20136891305446625,-0.8012375235557556,1.9355568885803223
1765549731729909500,1.714909423828125,0.2589571475982666,-0.3004424273967743,1.8007512092590332
1765549731739903500,1.724903564453125,0.3772294521331787,0.0956798866391182,1.471996784210205
1765549731749896200,1.734896240234375,0.5646960735321045,0.49534308910369873,1.0670982599258423
1765549731759889400,1.744889404296875,0.8217198848724365,0.5422136187553406,0.6086555123329163
1765549731769882400,1.75488232421875,1.0070327520370483,0.2153356373310089,0.036447279155254364
1765549731779875300,1.764875244140625,0.9957310557365417,-0.4060133695602417,-0.6454079747200012
1765549731789869300,1.774869384765625,0.8269033432006836,-0.8478877544403076,-1.24064302444458
1765549731799862300,1.7848623046875,0.6713387370109558,-0.9413090348243713,-1.5435799360275269
1765549731809855200,1.794855224609375,0.7794229388237,-0.6731597185134888,-1.4762823581695557
1765549731819848200,1.80484814453125,1.1811013221740723,-0.21141231060028076,-0.9793893098831177
1765549731829842400,1.814842529296875,1.596900224685669,0.04115159809589386,-0.18991795182228088
1765549731839835400,1.82483544921875,1.8482550382614136,0.006122509017586708,0.5902546048164368
1765549731849828400,1.834828369140625,1.9622999429702759,-0.09227099269628525,1.15097177028656
1765549731859821300,1.8448212890625,2.0624661445617676,-0.21117261052131653,1.3991730213165283
1765549731869814300,1.854814208984375,2.173738479614258,-0.2248256653547287,1.451758623123169
1765549731879808500,1.86480859375,2.265852689743042,-0.08018805086612701,1.498050570487976
1765549731889801200,1.87480126953125,2.240973949432373,0.10221224278211594,1.553133249282837
1765549731899794400,1.88479443359375,2.0697903633117676,0.17264780402183533,1.5385940074920654
1765549731909787400,1.894787353515625,1.8598237037658691,0.2503513991832733,1.4540188312530518
1765549731919780400,1.9047802734375,1.6877321004867554,0.3874935507774353,1.3890122175216675
1765549731929774300,1.9147744140625,1.612488031387329,0.6574456691741943,1.3540372848510742
1765549731939767300,1.924767333984375,1.65364408493042,1.052645206451416,1.362733244895935
1765549731949760500,1.934760498046875,1.787598967552185,1.4596012830734253,1.4209622144699097
1765549731959753200,1.944753173828125,1.9348728656768799,1.7887892723083496,1.52248215675354
1765549731969746400,1.954746337890625,2.0035595893859863,2.040951728820801,1.652729868888855
1765549731979740400,1.964740478515625,1.9873360395431519,2.20416259765625,1.8043649196624756
1765549731989733000,1.974733154296875,1.9427794218063354,2.360886335372925,1.900131344795227
1765549731999726300,1.984726318359375,1.8904638290405273,2.686188220977783,1.9103763103485107
1765549732009719300,1.99471923828125,1.7741656303405762,3.0065619945526123,1.795379400253296
1765549732019712500,2.00471240234375,1.5464024543762207,3.0234169960021973,1.5785082578659058
1765549732029706200,2.014706298828125,1.2262362241744995,2.808858633041382,1.3640040159225464
1765549732039699200,2.02469921875,0.9489924311637878,2.9209845066070557,1.2018537521362305
1765549732049692400,2.0346923828125,0.8431093096733093,3.4229280948638916,1.122177004814148
1765549732059685000,2.04468505859375,0.9044917225837708,3.9952232837677,1.1061359643936157
1765549732069678300,2.05467822265625,1.1874507665634155,4.269888877868652,0.9616575837135315
1765549732079672300,2.06467236328125,1.602237582206726,4.178238391876221,0.7100237607955933
1765549732089665500,2.07466552734375,2.053896188735962,3.9379658699035645,0.4634806513786316
1765549732099658200,2.084658203125,2.512579917907715,3.670978546142578,0.3895462453365326
1765549732109651200,2.094651123046875,2.9390366077423096,3.5667059421539307,0.43613430857658386
1765549732119645400,2.1046455078125,3.2874932289123535,3.652512311935425,0.48023173213005066
1765549732129638400,2.114638427734375,3.5683865547180176,3.9609060287475586,0.46714794635772705
1765549732139631400,2.12463134765625,3.678321123123169,4.048037528991699,0.3861071467399597
1765549732149624300,2.134624267578125,3.6640584468841553,3.889357805252075,0.31769686937332153
1765549732159617500,2.144617431640625,3.671318292617798,3.8432371616363525,0.30755743384361267
1765549732169611300,2.154611328125,3.717697858810425,3.919903039932251,0.3613262176513672
1765549732179604200,2.164604248046875,3.7794296741485596,3.975895643234253,0.4923049807548523
1765549732189597400,2.174597412109375,3.8654191493988037,3.9825894832611084,0.6775115728378296
1765549732199590400,2.18459033203125,3.9209203720092773,3.6619832515716553,0.7735307812690735
1765549732209583400,2.194583251953125,3.9411513805389404,3.0836026668548584,0.7125056982040405
1765549732219577300,2.204577392578125,3.9814693927764893,2.69100284576416,0.6185752153396606
1765549732229570300,2.2145703125,4.129002571105957,2.732349395751953,0.6225214004516602
1765549732239563300,2.224563232421875,4.480233669281006,2.8720479011535645,0.7596811056137085
1765549732249556200,2.23455615234375,4.989887714385986,2.720698833465576,1.01546311378479
1765549732259550200,2.24455029296875,5.5142340660095215,2.3866899013519287,1.4273635149002075
1765549732269543400,2.25454345703125,5.911975383758545,2.1773953437805176,1.921095609664917
1765549732279536000,2.2645361328125,6.145891189575195,2.1583919525146484,2.3206756114959717
1765549732289529300,2.274529296875,6.179832458496094,2.2700979709625244,2.5799131393432617
1765549732299522300,2.284522216796875,6.012053966522217,2.2105071544647217,2.6776771545410156
1765549732309516500,2.2945166015625,5.687976837158203,2.01882004737854,2.6537888050079346
1765549732319509200,2.30450927734375,5.288768768310547,1.9830021858215332,2.5704565048217773
1765549732329502500,2.31450244140625,4.90812873840332,2.099886894226074,2.4634854793548584
1765549732339495400,2.324495361328125,4.536463737487793,2.2429964542388916,2.3329355716705322
1765549732349488400,2.33448828125,4.122590065002441,2.3880209922790527,2.183901071548462
1765549732359482400,2.344482421875,3.6406378746032715,2.4516353607177734,2.056586742401123
1765549732369475300,2.354475341796875,3.1224920749664307,2.511526584625244,1.979103684425354
1765549732379468500,2.364468505859375,2.6726973056793213,2.551536798477173,1.9474852085113525
1765549732389461200,2.374461181640625,2.4641966819763184,2.516115188598633,1.9051014184951782
1765549732399454500,2.384454345703125,2.5100481510162354,2.352306842803955,1.8110665082931519
1765549732409448400,2.394448486328125,2.6251795291900635,2.0614256858825684,1.6912084817886353
1765549732419441200,2.404441162109375,2.715681791305542,1.742915153503418,1.5964354276657104
1765549732429434400,2.414434326171875,2.7208216190338135,1.519577980041504,1.5537598133087158
1765549732439427300,2.42442724609375,2.619615316390991,1.4020260572433472,1.5226714611053467
1765549732449421300,2.43442138671875,2.428467273712158,1.2083086967468262,1.4003870487213135
1765549732459414300,2.444414306640625,2.1327731609344482,0.9038864970207214,1.0910837650299072
1765549732469407200,2.4544072265625,1.791450023651123,0.6256228685379028,0.6296198964118958
1765549732479400400,2.464400390625,1.473307728767395,0.4496646523475647,0.13048650324344635
1765549732489393200,2.47439306640625,1.207278847694397,0.3236859142780304,-0.32713398337364197
1765549732499387400,2.484387451171875,1.0905909538269043,0.3497675657272339,-0.7067066431045532
1765549732509380400,2.49438037109375,1.1724953651428223,0.40996819734573364,-1.0327138900756836
1765549732519373300,2.504373291015625,1.3559706211090088,0.33933767676353455,-1.2313188314437866
1765549732529366300,2.5143662109375,1.5070619583129883,0.19796691834926605,-1.2728092670440674
1765549732539359200,2.524359130859375,1.6043853759765625,0.009638028219342232,-1.2221602201461792
1765549732549353500,2.534353515625,1.6117817163467407,-0.1360563337802887,-1.1721055507659912
1765549732559347000,2.544346923828125,1.4525560140609741,-0.2606411576271057,-1.2384494543075562
1765549732569339600,2.554339599609375,1.2402929067611694,-0.2685975730419159,-1.408972144126892
1765549732579332900,2.564332763671875,0.9744787812232971,-0.13640759885311127,-1.6395691633224487
1765549732589326800,2.574326904296875,0.6146961450576782,-0.09393933415412903,-1.9157377481460571
1765549732599319800,2.58431982421875,0.22057919204235077,-0.3384750187397003,-2.2699060440063477
1765549732609312800,2.594312744140625,-0.1443677693605423,-1.0247602462768555,-2.6421194076538086
1765549732619305700,2.6043056640625,-0.28784504532814026,-2.7667365074157715,-3.1202964782714844
1765549732629299000,2.614298828125,-0.5723938345909119,-3.1115641593933105,-3.1574554443359375
1765549732639292700,2.624292724609375,-1.1005812883377075,-2.5232181549072266,-3.094630479812622
1765549732649286000,2.634285888671875,-1.0995153188705444,-1.4901403188705444,-3.096454620361328
1765549732659278800,2.64427880859375,-1.1868318319320679,-0.7790957689285278,-3.299607992172241
1765549732669272000,2.65427197265625,-1.4762897491455078,-0.9304938316345215,-3.512786626815796
1765549732679264800,2.6642646484375,-1.8274641036987305,-1.4188299179077148,-3.642265796661377
1765549732689258800,2.6742587890625,-2.3129191398620605,-2.130516529083252,-3.7574877738952637
1765549732699252000,2.684251953125,-2.852174758911133,-2.5072522163391113,-3.9899535179138184
1765549732709244700,2.69424462890625,-3.4080686569213867,-2.4806222915649414,-4.401525974273682
1765549732719238000,2.70423779296875,-3.9751315116882324,-2.402839422225952,-4.902050971984863
1765549732729232000,2.71423193359375,-4.5377373695373535,-2.315478563308716,-5.209701061248779
1765549732739224800,2.724224853515625,-5.1125383377075195,-2.2871172428131104,-5.244836330413818
1765549732749217800,2.7342177734375,-5.6733622550964355,-2.321988821029663,-5.104361534118652
1765549732759210800,2.744210693359375,-6.172107696533203,-2.458301544189453,-4.855712413787842
1765549732769204000,2.754203857421875,-6.557692527770996,-2.949955701828003,-4.625170707702637
1765549732779198000,2.764197998046875,-6.69219446182251,-3.76702880859375,-4.407388210296631
1765549732789190700,2.774190673828125,-6.641294002532959,-4.708409786224365,-4.190640449523926
1765549732799184000,2.784183837890625,-6.58242654800415,-5.429071426391602,-4.091559886932373
1765549732809176800,2.7941767578125,-6.569755554199219,-5.79506254196167,-4.244595050811768
1765549732819170800,2.8041708984375,-6.72139310836792,-5.828869342803955,-4.541633129119873
1765549732829163800,2.814163818359375,-7.133681297302246,-5.700266361236572,-4.770020484924316
1765549732839157000,2.824156982421875,-7.768056869506836,-5.628087043762207,-4.88848876953125
1765549732849150000,2.83414990234375,-8.625295639038086,-5.707311153411865,-4.895692348480225
1765549732859142700,2.844142578125,-9.551231384277344,-5.990086555480957,-4.802831172943115
1765549732869137000,2.854136962890625,-10.293061256408691,-6.2819929122924805,-4.671047210693359
1765549732879129900,2.8641298828125,-10.851994514465332,-6.464319705963135,-4.4863176345825195
1765549732889122800,2.874122802734375,-11.289495468139648,-6.588822841644287,-4.1714019775390625
1765549732899115800,2.88411572265625,-11.543242454528809,-6.602334022521973,-3.718636989593506
1765549732909109800,2.89410986328125,-11.597437858581543,-6.53464412689209,-3.1471633911132812
1765549732919103000,2.90410302734375,-11.500677108764648,-6.513098239898682,-2.4519855976104736
1765549732929095700,2.914095703125,-11.268860816955566,-6.5390825271606445,-1.7322616577148438
1765549732939089000,2.9240888671875,-10.964566230773926,-6.763598918914795,-1.1761223077774048
1765549732949081900,2.934081787109375,-10.59054946899414,-6.971533298492432,-0.7656418681144714
1765549732959075800,2.944075927734375,-10.129343032836914,-6.987287521362305,-0.39207330346107483
1765549732969068800,2.95406884765625,-9.709718704223633,-6.876033782958984,-0.03794235736131668
1765549732979061800,2.964061767578125,-9.361356735229492,-6.668453216552734,0.34899255633354187
1765549732989055000,2.974054931640625,-9.036870002746582,-6.37161111831665,0.7325572967529297
1765549732999049000,2.984049072265625,-8.667428016662598,-6.069891929626465,1.0559377670288086
1765549733009041700,2.994041748046875,-8.262812614440918,-5.847769737243652,1.3397955894470215
1765549733019035000,3.004034912109375,-7.840410232543945,-5.772602558135986,1.6138595342636108
1765549733029027800,3.01402783203125,-7.435501575469971,-5.81988525390625,1.903242588043213
1765549733039020800,3.024020751953125,-7.131241798400879,-6.042266368865967,2.181887626647949
1765549733049014800,3.034014892578125,-6.928064346313477,-6.2844109535217285,2.4898297786712646
1765549733059008000,3.044008056640625,-6.7494001388549805,-6.251075744628906,2.788238763809204
1765549733069000700,3.054000732421875,-6.588382720947266,-6.190313339233398,3.0022575855255127
1765549733078994000,3.063993896484375,-6.4523024559021,-6.182069778442383,3.1378347873687744
1765549733088988000,3.07398779296875,-6.268842697143555,-6.241291522979736,3.191107749938965
1765549733098980900,3.08398095703125,-6.001623153686523,-6.3046345710754395,3.207418203353882
1765549733108973800,3.093973876953125,-5.732542514801025,-6.446756839752197,3.2609810829162598
1765549733118966800,3.103966796875,-5.373187065124512,-6.615078926086426,3.4675650596618652
1765549733128960000,3.1139599609375,-4.856594562530518,-6.845531463623047,3.794250965118408
1765549733138954000,3.1239541015625,-4.359749794006348,-7.029492378234863,4.013720989227295
1765549733148946700,3.13394677734375,-4.054196834564209,-6.960879325866699,4.028400421142578
1765549733158940000,3.14393994140625,-3.9049158096313477,-6.6561360359191895,3.8298652172088623
1765549733168932900,3.153932861328125,-3.8440873622894287,-6.415280818939209,3.4857664108276367
1765549733178926800,3.1639267578125,-3.7344319820404053,-6.218969821929932,3.0692875385284424
1765549733188919800,3.173919921875,-3.557894229888916,-5.741732597351074,2.552708625793457
1765549733198912800,3.183912841796875,-3.4036219120025635,-5.095384120941162,1.9890403747558594
1765549733208906000,3.193906005859375,-3.3546199798583984,-4.401920318603516,1.5530407428741455
1765549733218898700,3.203898681640625,-3.2905070781707764,-3.8668344020843506,1.406691551208496
1765549733228893000,3.213892822265625,-3.068873167037964,-3.4566690921783447,1.3558850288391113
1765549733238886000,3.223885986328125,-2.7467164993286133,-3.2198805809020996,1.23064386844635
1765549733248878600,3.233878662109375,-2.3678221702575684,-2.9378650188446045,1.0555895566940308
1765549733258871800,3.243871826171875,-1.9978371858596802,-2.5051355361938477,0.9196770191192627
1765549733268864800,3.25386474609375,-1.6735790967941284,-1.9948744773864746,0.7960277199745178
1765549733278859000,3.26385888671875,-1.3960041999816895,-1.4764251708984375,0.7079032063484192
1765549733288851700,3.273851806640625,-1.119735836982727,-0.9631089568138123,0.6461672186851501
1765549733298845000,3.283844970703125,-0.8478153347969055,-0.5373949408531189,0.6129860877990723
1765549733308838000,3.293837890625,-0.5401850938796997,-0.21333590149879456,0.5792813301086426
1765549733318831900,3.303831787109375,-0.18836575746536255,0.07894416153430939,0.5312017202377319
1765549733328824800,3.313824951171875,0.1698910892009735,0.409155011177063,0.45347899198532104
1765549733338817800,3.32381787109375,0.4855686128139496,0.672534167766571,0.323025643825531
1765549733348811000,3.33381103515625,0.7335700988769531,0.8906804919242859,0.12746787071228027
1765549733358803700,3.3438037109375,0.8845460414886475,1.0342618227005005,-0.0701352208852768
1765549733368797700,3.353797607421875,0.9311397671699524,1.1880549192428589,-0.17856378853321075
1765549733378791000,3.363791015625,0.945589542388916,1.4232338666915894,-0.19994977116584778
1765549733388783900,3.373783935546875,0.9595885872840881,1.5838993787765503,-0.179313063621521
1765549733398776800,3.38377685546875,0.9855358004570007,1.6529940366744995,-0.14947287738323212
1765549733408769800,3.393769775390625,1.0456361770629883,1.6725549697875977,-0.14512115716934204
1765549733418763800,3.403763671875,1.1419135332107544,1.623429536819458,-0.17700745165348053
1765549733428756700,3.4137568359375,1.3067513704299927,1.5037388801574707,-0.26110324263572693
1765549733438749700,3.423749755859375,1.502915859222412,1.3862040042877197,-0.39156273007392883
1765549733448743000,3.433742919921875,1.6622720956802368,1.2285016775131226,-0.5639461874961853
1765549733458737000,3.44373681640625,1.7649023532867432,1.099873661994934,-0.7509989142417908
1765549733468729900,3.453729736328125,1.8437931537628174,1.0587834119796753,-0.9784234762191772
1765549733478722800,3.463722900390625,1.8449167013168335,1.107063889503479,-1.2450236082077026
1765549733488715800,3.4737158203125,1.6775178909301758,1.2573670148849487,-1.5206847190856934
1765549733498708700,3.483708740234375,1.361750602722168,1.385117530822754,-1.851261854171753
1765549733508702700,3.49370263671875,1.0288177728652954,1.4369268417358398,-2.1737749576568604
1765549733518696000,3.503696044921875,0.8117843270301819,1.5299566984176636,-2.4119796752929688
1765549733528689000,3.51368896484375,0.714221715927124,1.6452834606170654,-2.5666863918304443
1765549733538681900,3.523681884765625,0.7329568266868591,1.6870133876800537,-2.679431915283203
1765549733548675800,3.53367578125,0.8732054233551025,1.6379367113113403,-2.751190662384033
1765549733558668800,3.543668701171875,1.0893511772155762,1.574663519859314,-2.7261364459991455
1765549733568662300,3.553662353515625,1.3452740907669067,1.623710036277771,-2.601722478866577
1765549733578655000,3.563655029296875,1.6635500192642212,1.7753320932388306,-2.245112657546997
1765549733588648200,3.573648193359375,1.9950454235076904,1.6993781328201294,-1.8813103437423706
1765549733598642200,3.58364208984375,2.395740509033203,1.6926153898239136,-1.6855686902999878
1765549733608635100,3.59363525390625,2.7659103870391846,1.7123091220855713,-1.5737868547439575
1765549733618628000,3.603628173828125,2.957993507385254,1.7049132585525513,-1.5254210233688354
1765549733628621000,3.61362109375,3.055177688598633,1.8238253593444824,-1.5384652614593506
1765549733638615000,3.623614990234375,3.105407238006592,2.0375301837921143,-1.6005842685699463
1765549733648608000,3.63360791015625,3.1333229541778564,2.298729658126831,-1.7163273096084595
1765549733658601000,3.64360107421875,3.1872713565826416,2.5951852798461914,-1.8599289655685425
1765549733668594200,3.65359423828125,3.2751822471618652,3.185626983642578,-1.8045395612716675
1765549733678587100,3.663587158203125,3.298853874206543,3.139983892440796,-1.2610738277435303
1765549733688580900,3.673580810546875,3.1711177825927734,2.9119606018066406,-1.4715962409973145
1765549733698574000,3.683573974609375,3.2086997032165527,2.763800859451294,-1.7639647722244263
1765549733708567000,3.693567138671875,3.3702573776245117,2.7243669033050537,-1.962573766708374
1765549733718560000,3.70356005859375,3.530818223953247,2.592491865158081,-1.8965680599212646
1765549733728553000,3.713552978515625,3.6947357654571533,2.4523017406463623,-1.6972280740737915
1765549733738547200,3.723547119140625,3.8629605770111084,2.4193270206451416,-1.447910189628601
1765549733748540200,3.7335400390625,3.9973483085632324,2.487614393234253,-1.2284730672836304
1765549733758533000,3.743533203125,4.103372097015381,2.6078803539276123,-1.082135796546936
1765549733768526000,3.753526123046875,4.155491828918457,2.7935640811920166,-0.9817390441894531
1765549733778520000,3.76352001953125,4.133531093597412,3.0703670978546143,-0.9672868251800537
1765549733788513300,3.77351318359375,3.9865856170654297,3.37746524810791,-1.0618860721588135
1765549733798506000,3.783506103515625,3.69696044921875,3.683206558227539,-1.1893401145935059
1765549733808499200,3.793499267578125,3.4189083576202393,3.9003946781158447,-1.207100510597229
1765549733818492200,3.8034921875,3.3006722927093506,3.9576575756073,-1.0518286228179932
1765549733828486000,3.81348583984375,3.400376558303833,3.827812910079956,-0.6946510076522827
1765549733838479000,3.82347900390625,3.7508928775787354,3.6020214557647705,-0.1657312512397766
1765549733848472000,3.83347216796875,4.325756549835205,3.3704817295074463,0.4310036599636078
1765549733858465300,3.84346533203125,4.97139310836792,3.2495534420013428,1.0156970024108887
1765549733868459000,3.853458984375,5.480223178863525,3.244673252105713,1.4656260013580322
1765549733878452000,3.863451904296875,5.746500492095947,3.389582872390747,1.6793012619018555
1765549733888445200,3.873445068359375,5.760608673095703,3.6817054748535156,1.5999611616134644
1765549733898438000,3.88343798828125,5.502261638641357,4.123444080352783,1.1909856796264648
1765549733908431000,3.89343115234375,4.923452854156494,4.519704818725586,0.5476524829864502
1765549733918425000,3.903425048828125,4.144032001495361,4.725772857666016,-0.23166616261005402
1765549733928418000,3.91341796875,3.3967456817626953,4.718937873840332,-1.0276459455490112
1765549733938411000,3.923410888671875,2.8262884616851807,4.682462692260742,-1.6946618556976318
1765549733948404000,3.933404052734375,2.488900899887085,4.788843154907227,-2.1942806243896484
1765549733958398200,3.943398193359375,2.470606803894043,4.951104164123535,-2.575976848602295
1765549733968391200,3.95339111328125,2.774505138397217,4.987209320068359,-2.838439464569092
1765549733978384100,3.963384033203125,3.27728271484375,4.828402042388916,-2.9144179821014404
1765549733988377000,3.973377197265625,3.854236125946045,4.571750640869141,-2.809954881668091
1765549733998370000,3.9833701171875,4.396524429321289,4.327269554138184,-2.5804619789123535
1765549734008364300,3.9933642578125,4.855066299438477,4.11603307723999,-2.2858939170837402
1765549734018357000,4.00335693359375,5.246721267700195,3.8474302291870117,-1.9540672302246094
1765549734028350200,4.01335009765625,5.6315131187438965,3.467050552368164,-1.6778150796890259
1765549734038343200,4.02334326171875,6.0389814376831055,3.1109445095062256,-1.5019582509994507
1765549734048337000,4.0333369140625,6.399178981781006,2.8473753929138184,-1.4245645999908447
1765549734058330000,4.043330078125,6.6572980880737305,2.691436290740967,-1.439110279083252
1765549734068323000,4.053322998046875,6.821692943572998,2.6524548530578613,-1.5466679334640503
1765549734078316000,4.06331591796875,6.892104625701904,2.7218129634857178,-1.7110675573349
1765549734088309000,4.07330908203125,6.858665943145752,2.85806941986084,-1.8999396562576294
1765549734098303000,4.083302978515625,6.703581809997559,3.085798978805542,-2.0787618160247803
1765549734108296200,4.093296142578125,6.414025783538818,3.361539125442505,-2.1998393535614014
1765549734118289000,4.103288818359375,6.095241069793701,3.6522347927093506,-2.2771921157836914
1765549734128282000,4.1132822265625,5.829108715057373,3.8474202156066895,-2.3253982067108154
1765549734138276000,4.123276123046875,5.7410807609558105,3.8316702842712402,-2.3346774578094482
1765549734148269000,4.13326904296875,5.921050071716309,3.72218656539917,-2.337245464324951
1765549734158262000,4.143261962890625,6.384573459625244,3.699690103530884,-2.4161407947540283
1765549734168255000,4.1532548828125,6.927109241485596,3.5021181106567383,-2.518692970275879
1765549734178248200,4.163248291015625,7.375580310821533,3.0399129390716553,-2.426483631134033
1765549734188242200,4.1732421875,7.661413669586182,2.3858258724212646,-2.0726699829101562
1765549734198235100,4.183235107421875,7.68671178817749,1.8300353288650513,-1.475318193435669
1765549734208228000,4.19322802734375,7.380512714385986,1.550379753112793,-0.8640267848968506
1765549734218221300,4.20322119140625,6.820169448852539,1.530727744102478,-0.49428603053092957
1765549734228215000,4.213215087890625,5.993880271911621,1.688860297203064,-0.40481075644493103
1765549734238208000,4.2232080078125,5.011162281036377,1.8813562393188477,-0.4145052134990692
1765549734248201200,4.233201171875,4.183746337890625,2.0642011165618896,-0.4359057545661926
1765549734258194000,4.24319384765625,3.6635820865631104,2.135817527770996,-0.4708903729915619
1765549734268187100,4.253187255859375,3.398749589920044,2.0594189167022705,-0.4834561049938202
1765549734278181000,4.26318115234375,3.339611291885376,1.8639012575149536,-0.4603702127933502
1765549734288174000,4.273174072265625,3.4488556385040283,1.6049023866653442,-0.3733923137187958
1765549734298167000,4.2831669921875,3.6730895042419434,1.3494223356246948,-0.21347108483314514
1765549734308160000,4.293159912109375,3.9105539321899414,1.1183090209960938,-0.000646053405944258
1765549734318154000,4.303154052734375,4.080040454864502,0.9490102529525757,0.2170923948287964
1765549734328147200,4.313147216796875,4.104069709777832,0.885856032371521,0.401899129152298
1765549734338140000,4.323139892578125,3.9269983768463135,0.9245828986167908,0.5804718136787415
1765549734348133000,4.333133056640625,3.5812628269195557,0.9995342493057251,0.7244797945022583
1765549734358127000,4.343127197265625,3.156428575515747,1.0101394653320312,0.8055570721626282
1765549734368120300,4.353120361328125,2.749077320098877,0.9638481140136719,0.8357383012771606
1765549734378113000,4.363113037109375,2.432750701904297,0.8980358242988586,0.8637875318527222
1765549734388106000,4.37310595703125,2.2320852279663086,0.795146644115448,0.9366411566734314
1765549734398099200,4.38309912109375,2.121925115585327,0.6627612113952637,1.03331458568573
1765549734408093000,4.393093017578125,2.069693088531494,0.4881353974342346,1.1112078428268433
1765549734418086100,4.403086181640625,2.0620882511138916,0.2817308306694031,1.1302614212036133
1765549734428079000,4.4130791015625,2.072608232498169,0.05758507922291756,1.079169511795044
1765549734438072000,4.423072021484375,2.0570571422576904,-0.17951641976833344,0.9993398785591125
1765549734448066000,4.433066162109375,1.9514861106872559,-0.3885936737060547,0.9785717129707336
1765549734458059000,4.44305908203125,1.7380319833755493,-0.6087865233421326,1.0470367670059204
1765549734468052200,4.45305224609375,1.4470659494400024,-0.8137394785881042,1.1702476739883423
1765549734478045000,4.463044921875,1.141374945640564,-0.9641340374946594,1.3038486242294312
1765549734488038100,4.4730380859375,0.8569770455360413,-1.0006955862045288,1.3593388795852661
1765549734498032000,4.4830322265625,0.5891093611717224,-0.9863988757133484,1.3345611095428467
1765549734508025000,4.493025146484375,0.3589027523994446,-0.9270585179328918,1.2598028182983398
1765549734518018000,4.50301806640625,0.1880684345960617,-0.8154590129852295,1.1696563959121704
1765549734528011000,4.513010986328125,0.08709093183279037,-0.6912320852279663,1.0921895503997803
1765549734538005000,4.5230048828125,0.06204017624258995,-0.623778760433197,1.0484846830368042
1765549734547998200,4.532998291015625,0.10268805921077728,-0.6166876554489136,1.0382922887802124
1765549734557991000,4.542990966796875,0.20986537635326385,-0.6466700434684753,1.0657986402511597
1765549734567983600,4.552983642578125,0.368688702583313,-0.674034059047699,1.123695731163025
1765549734577976600,4.5629765625,0.5272717475891113,-0.7338451743125916,1.1873536109924316
1765549734587970800,4.572970703125,0.6121304631233215,-0.8401901721954346,1.230719804763794
1765549734597963800,4.5829638671875,0.6044715046882629,-0.9413780570030212,1.2104731798171997
1765549734607956700,4.592956787109375,0.5171777606010437,-0.9578374624252319,1.0980225801467896
1765549734617949700,4.60294970703125,0.3880240023136139,-0.8259358406066895,0.9146138429641724
1765549734627943700,4.612943603515625,0.28541746735572815,-0.5434735417366028,0.6755141615867615
1765549734637936600,4.6229365234375,0.24282154440879822,-0.18984514474868774,0.42077937722206116
1765549734647929600,4.6329296875,0.2687870264053345,0.13245448470115662,0.21110749244689941
1765549734657922800,4.6429228515625,0.38163289427757263,0.3350107967853546,0.10891985893249512
1765549734667915800,4.652915771484375,0.5651752948760986,0.3933284282684326,0.11839921772480011
1765549734677909500,4.662909423828125,0.7771304249763489,0.30435433983802795,0.21322666108608246
1765549734687902700,4.67290283203125,0.9707111716270447,0.07486427575349808,0.3580126464366913
1765549734697895700,4.682895751953125,1.0857291221618652,-0.1881266087293625,0.5142076015472412
1765549734707888600,4.692888671875,1.1191962957382202,-0.3370206356048584,0.6254404187202454
1765549734717882600,4.702882568359375,1.0967471599578857,-0.3475760817527771,0.6748050451278687
1765549734727875600,4.71287548828125,1.0565792322158813,-0.20867110788822174,0.6932971477508545
1765549734737868800,4.722868896484375,1.0276769399642944,0.028081247583031654,0.6736738681793213
1765549734747861500,4.732861572265625,1.032808780670166,0.2642464339733124,0.6428772211074829
1765549734757855700,4.742855712890625,1.0907963514328003,0.4323054552078247,0.6206832528114319
1765549734767848700,4.7528486328125,1.1736338138580322,0.5316423177719116,0.6194552779197693
1765549734777842000,4.762842041015625,1.2464492321014404,0.5229305624961853,0.6359239816665649
1765549734787834600,4.772834716796875,1.2839372158050537,0.39584028720855713,0.6304168701171875
1765549734797827800,4.782827880859375,1.315890908241272,0.28201359510421753,0.6409462094306946
1765549734807821800,4.79282177734375,1.3464500904083252,0.2262815684080124,0.6603805422782898
1765549734817814500,4.802814453125,1.3618830442428589,0.22819745540618896,0.652672290802002
1765549734827807700,4.812807861328125,1.353031039237976,0.31136029958724976,0.6129116415977478
1765549734837800700,4.82280078125,1.3043197393417358,0.43612489104270935,0.5714712738990784
1765549734847794700,4.832794677734375,1.2125496864318848,0.5274332165718079,0.5397270917892456
1765549734857787600,4.84278759765625,1.123753547668457,0.5591517686843872,0.5463985800743103
1765549734867780600,4.852780517578125,1.0927921533584595,0.5331832766532898,0.6236920356750488
1765549734877773800,4.86277392578125,1.1208490133285522,0.5125722885131836,0.7199477553367615
1765549734887766500,4.8727666015625,1.1775178909301758,0.49196717143058777,0.7562764286994934
1765549734897760500,4.882760498046875,1.2361575365066528,0.5016567707061768,0.7095991969108582
1765549734907753700,4.892753662109375,1.2928178310394287,0.5121906399726868,0.6090841889381409
1765549734917746700,4.90274658203125,1.3516888618469238,0.5347273349761963,0.5212019681930542
1765549734927739600,4.91273974609375,1.393568515777588,0.6185622811317444,0.4947175681591034
1765549734937733600,4.922733642578125,1.3597601652145386,0.6899017095565796,0.5257236957550049
1765549734947726800,4.932726806640625,1.3216873407363892,0.722494900226593,0.5891150832176208
1765549734957719800,4.9427197265625,1.3270078897476196,0.7306881546974182,0.6341797113418579
1765549734967712800,4.952712646484375,1.3648587465286255,0.6965692639350891,0.6306068301200867
1765549734977706800,4.962706787109375,1.4039483070373535,0.6516097784042358,0.5856436491012573
1765549734987699700,4.97269970703125,1.4615510702133179,0.6191318035125732,0.5240947604179382
1765549734997693000,4.98269287109375,1.5533102750778198,0.6168422698974609,0.4553415775299072
1765549735007685600,4.992685546875,1.6876733303070068,0.6000587940216064,0.3812117278575897
1765549735017678800,5.002678955078125,1.8468225002288818,0.5508127212524414,0.3573785424232483
1765549735027672800,5.0126728515625,1.9688668251037598,0.4525843560695648,0.40785759687423706
1765549735037665500,5.02266552734375,2.0131676197052,0.29080531001091003,0.501254677772522
1765549735047658800,5.03265869140625,1.982599139213562,0.08683197945356369,0.6453255414962769
1765549735057651700,5.042651611328125,1.8911962509155273,-0.06950223445892334,0.771956205368042
1765549735067645700,5.052645751953125,1.7752811908721924,-0.11486733704805374,0.871842622756958
1765549735077638700,5.062638671875,1.6255358457565308,-0.05175574868917465,0.9164729118347168
1765549735087631600,5.072631591796875,1.4556713104248047,0.14302858710289001,0.8946950435638428
1765549735097624800,5.082624755859375,1.2998838424682617,0.4398682415485382,0.8031036257743835
1765549735107617500,5.092617431640625,1.2113162279129028,0.6831536889076233,0.6876798868179321
1765549735117611500,5.102611572265625,1.2103471755981445,0.7972506880760193,0.555074155330658
1765549735127604700,5.112604736328125,1.2442870140075684,0.7748286724090576,0.45480483770370483
1765549735137597700,5.12259765625,1.270832896232605,0.6518502831459045,0.4499453604221344
1765549735147590700,5.132590576171875,1.3089920282363892,0.5431129336357117,0.5478403568267822
1765549735157584600,5.142584716796875,1.3676990270614624,0.5640701651573181,0.6848775744438171
1765549735167577900,5.152577880859375,1.418777585029602,0.6757742166519165,0.8117703199386597
1765549735177570800,5.16257080078125,1.49528169631958,0.8171547651290894,0.9366851449012756
1765549735187563800,5.172563720703125,1.6051725149154663,0.9042087197303772,1.023067831993103
1765549735197557800,5.182557861328125,1.6677019596099854,0.8973122239112854,1.1027581691741943
1765549735207550700,5.19255078125,1.6558706760406494,0.7613091468811035,1.2398393154144287
1765549735217543700,5.202543701171875,1.664648413658142,0.7335723638534546,1.4515537023544312
1765549735227536600,5.21253662109375,1.7238950729370117,0.7549490332603455,1.6653422117233276
1765549735237529900,5.22252978515625,1.7890015840530396,0.8107950091362,1.8064793348312378
1765549735247523800,5.23252392578125,1.8409384489059448,0.866011917591095,1.84418785572052
1765549735257516500,5.2425166015625,1.8730967044830322,0.9622036814689636,1.788454532623291
1765549735267509800,5.252509765625,1.9025181531906128,1.0722191333770752,1.6800196170806885
1765549735277502700,5.262502685546875,1.9146840572357178,1.1305005550384521,1.540730357170105
1765549735287496700,5.27249658203125,1.8768415451049805,1.072525143623352,1.392346739768982
1765549735297489700,5.28248974609375,1.8354618549346924,0.9395420551300049,1.27854585647583
1765549735307482600,5.292482666015625,1.84543776512146,0.9153922200202942,1.1945347785949707
1765549735317475800,5.302475830078125,1.8729660511016846,0.9705659747123718,1.100500464439392
1765549735327469800,5.3124697265625,1.8171125650405884,1.0225712060928345,1.0196722745895386
1765549735337462800,5.322462890625,1.7120839357376099,1.0132994651794434,0.9930698871612549
1765549735347455700,5.332455810546875,1.615594744682312,0.9341515302658081,1.0674117803573608
1765549735357448700,5.34244873046875,1.5533263683319092,0.7210805416107178,1.2642217874526978
1765549735367441700,5.352441650390625,1.4922670125961304,0.472581148147583,1.5503184795379639
1765549735377435600,5.362435546875,1.475338339805603,0.200582355260849,1.8544811010360718
1765549735387428900,5.372428955078125,1.5497435331344604,-0.07687291502952576,2.04207706451416
1765549735397421600,5.382421630859375,1.598347544670105,-0.45183053612709045,2.036098003387451
1765549735407414800,5.392414794921875,1.510198950767517,-0.8576464653015137,1.831322193145752
1765549735417408800,5.40240869140625,1.241684079170227,-1.213565468788147,1.4259331226348877
1765549735427401700,5.412401611328125,0.7662127614021301,-1.5086865425109863,0.8461081981658936
1765549735437394700,5.422394775390625,0.18028514087200165,-1.65933358669281,0.159627303481102
1765549735447387600,5.4323876953125,-0.38325199484825134,-1.6537330150604248,-0.5221909880638123
1765549735457381600,5.442381591796875,-0.895488440990448,-1.5084306001663208,-1.1168582439422607
1765549735467374800,5.452374755859375,-1.3873194456100464,-1.3462508916854858,-1.6267071962356567
1765549735477367600,5.462367431640625,-1.8957915306091309,-1.153247356414795,-2.0146665573120117
1765549735487360800,5.47236083984375,-2.4049973487854004,-1.053480625152588,-2.211582899093628
1765549735497353700,5.482353759765625,-2.8713066577911377,-1.1483376026153564,-2.219573736190796
1765549735507347700,5.49234765625,-3.152521848678589,-1.3039287328720093,-2.0927562713623047
1765549735517340700,5.502340576171875,-3.236950159072876,-1.6402188539505005,-1.9282218217849731
1765549735527333600,5.512333740234375,-3.1537084579467773,-2.1140711307525635,-1.7847745418548584
1765549735537326800,5.522326904296875,-2.9525771141052246,-2.6494882106781006,-1.6908214092254639
1765549735547320600,5.532320556640625,-2.722346782684326,-3.147808074951172,-1.680924654006958
1765549735557313800,5.542313720703125,-2.556891441345215,-3.478111743927002,-1.7427833080291748
1765549735567307300,5.552307373046875,-2.5480337142944336,-3.5650508403778076,-1.926466703414917
1765549735577300200,5.56230029296875,-2.702890157699585,-3.4862027168273926,-2.3284637928009033
1765549735587294200,5.572294189453125,-3.0736243724823,-3.3873977661132812,-2.8602912425994873
1765549735597287200,5.582287109375,-3.6790125370025635,-3.2631664276123047,-3.2943146228790283
1765549735607280000,5.592280029296875,-4.339345932006836,-3.130342721939087,-3.5251784324645996
1765549735617273000,5.602273193359375,-4.913392066955566,-3.103175640106201,-3.6393837928771973
1765549735627267000,5.61226708984375,-5.364295482635498,-3.197065591812134,-3.7963449954986572
1765549735637260300,5.62226025390625,-5.640130996704102,-3.2397003173828125,-4.03734016418457
1765549735647253200,5.632253173828125,-5.840667724609375,-3.4215424060821533,-4.288674831390381
1765549735657246200,5.64224609375,-6.01765251159668,-3.764658212661743,-4.4833221435546875
1765549735667239200,5.6522392578125,-6.240690231323242,-4.237604141235352,-4.581618309020996
1765549735677233200,5.662233154296875,-6.50368595123291,-4.763070583343506,-4.539256572723389
1765549735687226400,5.672226318359375,-6.849045753479004,-5.313027858734131,-4.358359336853027
1765549735697219000,5.682218994140625,-7.228034496307373,-5.7597222328186035,-4.131819248199463
1765549735707212300,5.69221240234375,-7.659096717834473,-6.129865646362305,-3.8429031372070312
1765549735717206300,5.702206298828125,-8.067817687988281,-6.387536525726318,-3.4449069499969482
1765549735727199200,5.71219921875,-8.290895462036133,-6.665451526641846,-3.0390584468841553
1765549735737192200,5.722192138671875,-8.378310203552246,-7.094749450683594,-2.6813302040100098
1765549735747185200,5.73218505859375,-8.409717559814453,-7.48418664932251,-2.4690160751342773
1765549735757179100,5.74217919921875,-8.49874496459961,-7.585210800170898,-2.4795382022857666
1765549735767172000,5.752172119140625,-8.772416114807129,-7.418941020965576,-2.6138885021209717
1765549735777165000,5.7621650390625,-9.278914451599121,-7.030540466308594,-2.671466588973999
1765549735787158300,5.772158203125,-9.897587776184082,-6.551465034484863,-2.60136342048645
1765549735797152300,5.78215234375,-10.483674049377441,-6.224504470825195,-2.396369457244873
1765549735807145200,5.792145263671875,-10.859578132629395,-6.040224075317383,-2.0263640880584717
1765549735817138200,5.80213818359375,-10.986967086791992,-5.989728927612305,-1.5905996561050415
1765549735827131400,5.81213134765625,-10.923226356506348,-6.071943759918213,-1.1434029340744019
1765549735837125400,5.82212548828125,-10.747438430786133,-5.994868278503418,-0.6006760597229004
1765549735847118000,5.8321181640625,-10.499628067016602,-5.889914035797119,-0.05027208477258682
1765549735857111300,5.842111328125,-10.1039400100708,-5.784073352813721,0.46480032801628113
1765549735867104300,5.852104248046875,-9.606250762939453,-5.734315395355225,0.9669076800346375
1765549735877098200,5.86209814453125,-9.037318229675293,-5.72567892074585,1.465993881225586
1765549735887091200,5.87209130859375,-8.427141189575195,-5.788908958435059,2.0181071758270264
1765549735897084200,5.882084228515625,-7.785891532897949,-5.894201278686523,2.5856258869171143
1765549735907077400,5.892077392578125,-7.103341102600098,-5.982908248901367,3.1314263343811035
1765549735917070000,5.902070068359375,-6.3825788497924805,-6.130934715270996,3.6035847663879395
1765549735927064000,5.91206396484375,-5.737087249755859,-6.373104095458984,3.9723832607269287
1765549735937057300,5.922057373046875,-5.248405456542969,-6.639006614685059,4.244140148162842
1765549735947050000,5.932050048828125,-4.963818073272705,-6.825582981109619,4.392889976501465
1765549735957043200,5.942043212890625,-4.854586124420166,-6.86570405960083,4.342259883880615
1765549735967037200,5.952037109375,-4.821838855743408,-6.784662246704102,4.10792875289917
1765549735977030400,5.962030517578125,-4.825477123260498,-6.594608306884766,3.7932136058807373
1765549735987023000,5.972023193359375,-4.894439220428467,-6.430791854858398,3.4859814643859863
1765549735997016000,5.98201611328125,-5.029723167419434,-6.350442409515381,3.2386910915374756
1765549736007010300,5.99201025390625,-5.181813716888428,-6.333194732666016,3.082216501235962
1765549736017003300,6.002003173828125,-5.251467227935791,-6.503102779388428,2.913801908493042
1765549736026996200,6.011996337890625,-5.229851722717285,-6.707911014556885,2.636955499649048
1765549736036989200,6.0219892578125,-5.245875358581543,-6.734072208404541,2.26961350440979
1765549736046982400,6.031982421875,-5.36705207824707,-6.4683146476745605,1.892104983329773
1765549736056976400,6.041976318359375,-5.584142208099365,-6.048408508300781,1.6679177284240723
1765549736066969000,6.051968994140625,-5.624438285827637,-5.646417617797852,1.6835999488830566
1765549736076962300,6.06196240234375,-5.265935897827148,-5.112468719482422,1.8035974502563477
1765549736086955300,6.071955322265625,-4.667471885681152,-4.662754535675049,1.837533712387085
1765549736096949000,6.081948974609375,-4.087096691131592,-4.483906269073486,1.7430084943771362
1765549736106942200,6.091942138671875,-3.582751512527466,-4.419333457946777,1.7063161134719849
1765549736116935200,6.10193505859375,-3.0629045963287354,-4.179337978363037,1.7390793561935425
1765549736126928100,6.11192822265625,-3.169501781463623,-3.0179173946380615,1.0135669708251953
1765549736136922000,6.121922119140625,-3.067298650741577,-2.826192855834961,0.7466188073158264
1765549736146915000,6.1319150390625,-2.5176782608032227,-2.9501795768737793,1.8579773902893066
1765549736156908300,6.141908203125,-1.6390407085418701,-3.479346752166748,2.236116409301758
1765549736166901000,6.15190087890625,-0.9681510925292969,-1.6605510711669922,1.973792552947998
1765549736176895200,6.161895263671875,-1.158903956413269,-0.9002487063407898,1.7648450136184692
1765549736186888200,6.17188818359375,-0.9191941618919373,-0.49381065368652344,1.4021862745285034
1765549736196881400,6.18188134765625,-0.5877025127410889,-0.5044888854026794,1.1200791597366333
1765549736206874000,6.1918740234375,-0.2991134822368622,-0.2558726668357849,0.8669080138206482
1765549736216867300,6.201867431640625,-0.06572841852903366,0.17211328446865082,0.7701186537742615
1765549736226861300,6.211861328125,0.172320157289505,0.4639416038990021,0.7243347764015198
1765549736236854300,6.221854248046875,0.3881610929965973,0.42059412598609924,0.6661883592605591
1765549736246847200,6.23184716796875,0.5868368148803711,0.1623406708240509,0.6136133670806885
1765549736256840200,6.241840087890625,0.743142306804657,-0.004863763228058815,0.5738755464553833
1765549736266834200,6.251834228515625,0.8838661909103394,0.030427435413002968,0.4060855507850647
1765549736276827100,6.2618271484375,0.938001275062561,0.12278879433870316,0.0625779777765274
1765549736286820000,6.271820068359375,0.8579177260398865,0.3283810317516327,-0.3389679193496704
1765549736296813300,6.281813232421875,0.7142393589019775,0.6548957824707031,-0.6344422101974487
1765549736306807300,6.291807373046875,0.6165041923522949,0.9654943346977234,-0.7670515775680542
1765549736316800000,6.301800048828125,0.6583376526832581,1.2196658849716187,-0.7728484272956848
1765549736326793200,6.311793212890625,0.7899068593978882,1.2994953393936157,-0.7732653021812439
1765549736336786200,6.3217861328125,0.9899848699569702,1.2610411643981934,-0.8696051239967346
1765549736346779100,6.331779052734375,1.235109806060791,1.2522350549697876,-0.9815694689750671
1765549736356773000,6.341773193359375,1.4776082038879395,1.1582937240600586,-1.087306022644043
1765549736366766300,6.351766357421875,1.6689525842666626,1.1145875453948975,-1.1750677824020386
1765549736376759300,6.36175927734375,1.8192849159240723,1.128906011581421,-1.242314100265503
1765549736386752300,6.371752197265625,1.919047474861145,1.2662550210952759,-1.2464303970336914
1765549736396746200,6.381746337890625,2.0100982189178467,1.4948383569717407,-1.083048939704895
1765549736406739200,6.3917392578125,2.079709053039551,1.6316983699798584,-0.8456307649612427
1765549736416732400,6.401732421875,2.089311361312866,1.715488076210022,-0.897388756275177
1765549736426725000,6.41172509765625,2.1017134189605713,1.7856557369232178,-0.9962174892425537
1765549736436719000,6.421718994140625,2.1861376762390137,1.8121072053909302,-1.0953327417373657
1765549736446712300,6.43171240234375,2.392059087753296,1.7394534349441528,-1.1631747484207153
1765549736456705000,6.441705078125,2.664924383163452,1.6345245838165283,-1.1390544176101685
1765549736466698200,6.4516982421875,2.927919387817383,1.6416513919830322,-1.0504323244094849
1765549736476691200,6.461691162109375,3.1380584239959717,1.7283868789672852,-0.9787020683288574
1765549736486685200,6.471685302734375,3.2816829681396484,1.859131932258606,-0.9847184419631958
1765549736496678100,6.48167822265625,3.3316550254821777,2.023778200149536,-1.0278140306472778
1765549736506671000,6.491671142578125,3.235471725463867,2.249688148498535,-1.096990704536438
1765549736516664300,6.501664306640625,3.0055549144744873,2.401989459991455,-1.2060786485671997
1765549736526658300,6.511658203125,2.76715087890625,2.4877896308898926,-1.3080886602401733
1765549736536651000,6.521651123046875,2.6458797454833984,2.607908010482788,-1.399497389793396
1765549736546644200,6.531644287109375,2.6388540267944336,2.7424399852752686,-1.5094196796417236
1765549736556637200,6.54163720703125,2.6789491176605225,2.8223750591278076,-1.6893641948699951
1765549736566631200,6.551631103515625,2.736574649810791,2.8427376747131348,-1.889451265335083
1765549736576624000,6.5616240234375,2.824573278427124,2.8810017108917236,-2.057164192199707
1765549736586617300,6.571617431640625,2.8942301273345947,2.9333009719848633,-2.160634756088257
1765549736596610000,6.581610107421875,2.943701982498169,3.0573062896728516,-2.1095311641693115
1765549736606603300,6.591603271484375,2.968885898590088,3.2038116455078125,-1.967790126800537
1765549736616597200,6.60159716796875,2.994314670562744,3.3172032833099365,-1.872748613357544
1765549736626590000,6.61158984375,3.0753326416015625,3.3991823196411133,-1.8610570430755615
1765549736636583200,6.621583251953125,3.197521924972534,3.450721025466919,-1.897249698638916
1765549736646576000,6.631576171875,3.3051095008850098,3.4222586154937744,-1.8944673538208008
1765549736656570000,6.641570068359375,3.3460190296173096,3.238905191421509,-1.7760941982269287
1765549736666563000,6.65156298828125,3.3232975006103516,3.062671661376953,-1.5549901723861694
1765549736676556000,6.66155615234375,3.271005868911743,2.939927577972412,-1.2221444845199585
1765549736686549200,6.67154931640625,3.248098373413086,2.946092367172241,-0.9091945886611938
1765549736696543200,6.681543212890625,3.259868621826172,3.0788729190826416,-0.7669644951820374
1765549736706536000,6.691535888671875,3.2205848693847656,3.3464131355285645,-0.8876572251319885
1765549736716529200,6.701529052734375,3.051116943359375,3.69795298576355,-1.209336519241333
1765549736726522000,6.711522216796875,2.7823917865753174,4.101088047027588,-1.6375353336334229
1765549736736515000,6.72151513671875,2.4955055713653564,4.443859100341797,-2.021131753921509
1765549736746509000,6.731509033203125,2.385404348373413,4.379579067230225,-2.164012908935547
1765549736756502300,6.741502197265625,2.5663650035858154,3.978827714920044,-1.9922986030578613
1765549736766495200,6.7514951171875,2.9951391220092773,3.500444173812866,-1.493057131767273
1765549736776488200,6.76148828125,3.55741548538208,3.091416835784912,-0.7769157886505127
1765549736786482200,6.771482177734375,4.174403190612793,2.8702585697174072,-0.05076402425765991
1765549736796475100,6.78147509765625,4.63783073425293,2.8244941234588623,0.43150594830513
1765549736806468000,6.791468017578125,4.829610824584961,2.861347198486328,0.5416457056999207
1765549736816461000,6.8014609375,4.773974895477295,2.9861302375793457,0.3431573510169983
1765549736826454300,6.811454345703125,4.546970367431641,3.1905133724212646,-0.03233228623867035
1765549736836448300,6.8214482421875,4.198550701141357,3.2978639602661133,-0.4231397211551666
1765549736846441000,6.83144091796875,3.7696077823638916,3.258561134338379,-0.673427164554596
1765549736856434200,6.84143408203125,3.355461359024048,3.0915825366973877,-0.701522946357727
1765549736866427100,6.85142724609375,3.1177725791931152,2.917435646057129,-0.4884661138057709
1765549736876421000,6.861421142578125,3.1594293117523193,2.8547518253326416,-0.19116252660751343
1765549736886414000,6.8714140625,3.431922197341919,2.9096062183380127,-0.002615562407299876
1765549736896407000,6.881406982421875,3.799217939376831,2.952531576156616,0.039322301745414734
1765549736906400300,6.891400146484375,4.108724594116211,2.9359397888183594,-0.0060767680406570435
1765549736916394200,6.901394287109375,4.2675981521606445,2.875002145767212,-0.04495039954781532
1765549736926387000,6.911386962890625,4.308892250061035,2.5864763259887695,-0.015644490718841553
1765549736936380200,6.921380126953125,4.349040985107422,2.0747413635253906,0.09678591787815094
1765549736946373000,6.931373046875,4.412774562835693,1.6026028394699097,0.23349811136722565
1765549736956366000,6.941365966796875,4.449036598205566,1.2772396802902222,0.3158632814884186
1765549736966360000,6.951360107421875,4.4022932052612305,1.0859375,0.2865152955055237
1765549736976353300,6.961353271484375,4.295086860656738,1.073689579963684,0.12680289149284363
1765549736986346000,6.971345947265625,4.171573638916016,1.25401771068573,-0.15974818170070648
1765549736996339200,6.981339111328125,4.032217025756836,1.621934175491333,-0.563122570514679
1765549737006333200,6.991333251953125,3.888475179672241,2.029740571975708,-1.0531494617462158
1765549737016326100,7.001326171875,3.762530565261841,2.349726438522339,-1.554579496383667
1765549737026319000,7.011319091796875,3.6662728786468506,2.5488431453704834,-1.9513119459152222
1765549737036312000,7.02131201171875,3.609252691268921,2.534104108810425,-2.1242659091949463
1765549737046306000,7.03130615234375,3.5734105110168457,2.2799251079559326,-2.0240273475646973
1765549737056299300,7.04129931640625,3.53208065032959,1.8655511140823364,-1.6756349802017212
1765549737066292000,7.0512919921875,3.530496120452881,1.4381712675094604,-1.185294508934021
1765549737076285200,7.06128515625,3.652228593826294,1.0564289093017578,-0.7366169095039368
1765549737086278100,7.071278076171875,3.8730216026306152,0.8335727453231812,-0.5090727210044861
1765549737096272100,7.081272216796875,4.073759078979492,0.8235882520675659,-0.5342718362808228
1765549737106265000,7.09126513671875,4.165594577789307,0.9428884387016296,-0.72967928647995
1765549737116258000,7.101258056640625,4.136451721191406,1.0103732347488403,-0.9715545177459717
1765549737126251300,7.111251220703125,3.937398910522461,1.0030728578567505,-1.1487911939620972
1765549737136245000,7.121244873046875,3.5668272972106934,0.9136316776275635,-1.1806113719940186
1765549737146238200,7.13123828125,3.0992867946624756,0.8098780512809753,-1.0793659687042236
1765549737156231200,7.141231201171875,2.6003262996673584,0.6952888369560242,-0.8584420084953308
1765549737166224100,7.15122412109375,2.184107780456543,0.5603736042976379,-0.5500731468200684
1765549737176217000,7.161217041015625,1.9559571743011475,0.4418288767337799,-0.25300708413124084
1765549737186211000,7.171211181640625,1.9147194623947144,0.3607845604419708,0.004236910492181778
1765549737196204300,7.181204345703125,1.9548051357269287,0.2856128513813019,0.1975128948688507
1765549737206197000,7.191197021484375,1.9816659688949585,0.22038738429546356,0.3322817385196686
1765549737216190200,7.201190185546875,1.9088245630264282,0.11523859947919846,0.40808114409446716
1765549737226184200,7.21118408203125,1.7390223741531372,-0.08876512199640274,0.4362521767616272
1765549737236177200,7.22117724609375,1.4825223684310913,-0.32756784558296204,0.4009077847003937
1765549737246170000,7.231170166015625,1.127124309539795,-0.5453821420669556,0.31529587507247925
1765549737256163000,7.2411630859375,0.6617025136947632,-0.7019432783126831,0.17136746644973755
1765549737266156300,7.25115625,0.10893002897500992,-0.761735200881958,-0.02059301920235157
1765549737276150300,7.261150390625,-0.4781150817871094,-0.7241966128349304,-0.2145073562860489
1765549737286143000,7.27114306640625,-1.0518054962158203,-0.6034972071647644,-0.3789204955101013
1765549737296136200,7.28113623046875,-1.5564167499542236,-0.4449805021286011,-0.5179617404937744
1765549737306129200,7.291129150390625,-1.93583345413208,-0.2961985468864441,-0.5896134972572327
1765549737316123100,7.301123046875,-2.1728339195251465,-0.18990594148635864,-0.579416036605835
1765549737326116000,7.3111162109375,-2.2523159980773926,-0.16052168607711792,-0.4722746014595032
1765549737336109000,7.321109130859375,-2.1908257007598877,-0.1830616146326065,-0.2645387351512909
1765549737346102300,7.331102294921875,-2.003201723098755,-0.24591395258903503,0.01641559787094593
1765549737356095000,7.341094970703125,-1.7457647323608398,-0.35283002257347107,0.32983022928237915
1765549737366089200,7.351089111328125,-1.4863710403442383,-0.48971229791641235,0.647006630897522
1765549737376082200,7.361082275390625,-1.2788716554641724,-0.6076144576072693,0.9173545241355896
1765549737386075100,7.3710751953125,-1.1587903499603271,-0.6823863387107849,1.108810544013977
1765549737396068000,7.381068115234375,-1.12593674659729,-0.6844135522842407,1.169474482536316
1765549737406062000,7.39106201171875,-1.1722288131713867,-0.6609491109848022,1.1256873607635498
1765549737416055300,7.40105517578125,-1.2770508527755737,-0.6001222133636475,1.0161765813827515
1765549737426048000,7.411048095703125,-1.406517505645752,-0.5014355778694153,0.9064707159996033
1765549737436041200,7.421041259765625,-1.5346269607543945,-0.3975520133972168,0.8198584318161011
1765549737446034200,7.4310341796875,-1.6296789646148682,-0.32406187057495117,0.7601808905601501
1765549737456028200,7.441028076171875,-1.6983327865600586,-0.2926786243915558,0.7091294527053833
1765549737466021000,7.451021240234375,-1.7414392232894897,-0.31727129220962524,0.6672706604003906
1765549737476014000,7.46101416015625,-1.7646915912628174,-0.38590070605278015,0.6397804021835327
1765549737486007300,7.47100732421875,-1.7584954500198364,-0.4650615453720093,0.6108414530754089
1765549737496001000,7.4810009765625,-1.7334485054016113,-0.5364997982978821,0.5704050660133362
1765549737505994000,7.490993896484375,-1.5605430603027344,0.30655646324157715,0.5326035022735596
1765549737515987200,7.5009873046875,-1.5694537162780762,-0.06425037980079651,0.5892071723937988
1765549737525980200,7.510980224609375,-1.5184186697006226,-0.051529884338378906,0.3877982497215271
1765549737535973000,7.52097314453125,-1.383794903755188,-0.10794442147016525,0.3521835207939148
1765549737545967000,7.530967041015625,-1.2487212419509888,0.23345941305160522,0.46431294083595276
1765549737555960000,7.5409599609375,-1.083053708076477,0.06637481600046158,0.3625144064426422
1765549737565952800,7.550952880859375,-0.9157599806785583,-0.1385146975517273,0.2874510884284973
1765549737575945700,7.56094580078125,-0.7743735909461975,-0.20203694701194763,0.306526243686676
1765549737585940000,7.57093994140625,-0.6213787198066711,-0.32937461137771606,0.2599516808986664
1765549737595933000,7.580932861328125,-0.5246175527572632,-0.40407466888427734,0.15706683695316315
1765549737605926000,7.59092578125,-0.518294095993042,-0.4057430326938629,0.010933051817119122
1765549737615918800,7.6009189453125,-0.5890926122665405,-0.37983232736587524,-0.13404890894889832
1765549737625912000,7.610912109375,-0.6896340847015381,-0.2479955554008484,-0.27413177490234375
1765549737635906000,7.620906005859375,-0.7667134404182434,-0.12482275813817978,-0.3487764298915863
1765549737645898800,7.630898681640625,-0.794806957244873,-0.022510292008519173,-0.3435215651988983
1765549737655892000,7.64089208984375,-0.7743504047393799,0.012252215296030045,-0.27129554748535156
1765549737665885000,7.650885009765625,-0.6784932613372803,-0.035640764981508255,-0.15878231823444366
1765549737675878000,7.6608779296875,-0.5135913491249084,-0.11459363996982574,-0.036332037299871445
1765549737685871900,7.670871826171875,-0.3204382061958313,-0.20970408618450165,0.02757412940263748
1765549737695864800,7.68086474609375,-0.14092332124710083,-0.3412237763404846,0.05475595220923424
1765549737705858000,7.690858154296875,-0.004174351692199707,-0.41330280900001526,0.06420682370662689
1765549737715850800,7.700850830078125,0.08719630539417267,-0.4328235387802124,0.05762322619557381
1765549737725844700,7.7108447265625,0.13596314191818237,-0.4155121147632599,0.07713811844587326
1765549737735838000,7.720837890625,0.16267678141593933,-0.37552234530448914,0.09226886928081512
1765549737745830700,7.73083056640625,0.18611446022987366,-0.3580746650695801,0.08572457730770111
1765549737755823900,7.740823974609375,0.1903611421585083,-0.3132621943950653,0.08218763023614883
1765549737765816800,7.75081689453125,0.16945739090442657,-0.2433687001466751,0.07289581000804901
1765549737775811000,7.76081103515625,0.1415458619594574,-0.1472645401954651,0.05543825402855873
1765549737785803800,7.7708037109375,0.11369660496711731,-0.0718860775232315,0.032715149223804474
1765549737795797000,7.780796875,0.1031225249171257,-0.033839888870716095,0.01027855183929205
1765549737805790000,7.7907900390625,0.1211576983332634,-0.046032898128032684,0.026055486872792244
1765549737815784000,7.800783935546875,0.18397021293640137,-0.06358419358730316,0.03752172738313675
1765549737825777000,7.81077685546875,0.278489351272583,-0.15012775361537933,0.06694289296865463
1765549737835769900,7.820769775390625,0.3979555368423462,-0.26182764768600464,0.12544241547584534
1765549737845763000,7.83076318359375,0.529718816280365,-0.37501469254493713,0.21720606088638306
1765549737855755800,7.840755859375,0.6246330738067627,-0.367520809173584,0.31548812985420227
1765549737865749800,7.850749755859375,0.6720693111419678,-0.42501431703567505,0.34343865513801575
1765549737875743000,7.860742919921875,0.6466736793518066,-0.4639023244380951,0.3115489184856415
1765549737885736000,7.87073583984375,0.5881436467170715,-0.4343646466732025,0.27871039509773254
1765549737895729000,7.88072900390625,0.5382453203201294,-0.3820854425430298,0.22902671992778778
1765549737905721900,7.890721923828125,0.529482901096344,-0.20355463027954102,0.14905934035778046
1765549737915715800,7.9007158203125,0.552788496017456,0.027279123663902283,0.08265075087547302
1765549737925708800,7.910708740234375,0.6133107542991638,0.254724383354187,0.04874534532427788
1765549737935701800,7.92070166015625,0.7401847839355469,0.4063054025173187,0.03908899053931236
1765549737945695000,7.930695068359375,0.9290407299995422,0.48971593379974365,0.050465598702430725
1765549737955689000,7.94068896484375,1.132431149482727,0.5207902193069458,0.10097803920507431
1765549737965681700,7.950681640625,1.327462911605835,0.5192533135414124,0.1709936112165451
1765549737975675000,7.9606748046875,1.4576352834701538,0.512703001499176,0.235947847366333
1765549737985667800,7.970667724609375,1.4927629232406616,0.5894910097122192,0.3383341431617737
1765549737995660800,7.980660888671875,1.4824943542480469,0.9323013424873352,0.49450644850730896
1765549738005654800,7.99065478515625,1.5108470916748047,1.291446328163147,0.6412001252174377
1765549738015648000,8.00064794921875,1.5654412508010864,1.4291589260101318,0.6994898319244385
1765549738025641000,8.010640869140625,1.6357316970825195,1.503275752067566,0.7222573757171631
1765549738035634000,8.020634033203125,1.732223629951477,1.5538573265075684,0.7662863731384277
1765549738045628000,8.0306279296875,1.8568944931030273,1.573874592781067,0.8496960997581482
1765549738055620900,8.040620849609375,1.983742117881775,1.602184772491455,0.9673755764961243
1765549738065614000,8.050614013671876,2.0825140476226807,1.6553453207015991,1.0904781818389893
1765549738075606800,8.060606689453126,2.1415481567382812,1.7494721412658691,1.1905847787857056
1765549738085600000,8.07060009765625,2.1686906814575195,1.9064030647277832,1.2506064176559448
1765549738095594000,8.080593994140624,2.18015718460083,2.105973482131958,1.258808970451355
1765549738105586700,8.090586669921874,2.182234525680542,2.2944228649139404,1.209097146987915
1765549738115580000,8.100579833984375,2.162304401397705,2.4651286602020264,1.1295222043991089
1765549738125572900,8.11057275390625,2.108070135116577,2.6462504863739014,1.0690733194351196
1765549738135565800,8.12056591796875,2.033353090286255,2.814925193786621,1.0281813144683838
1765549738145559800,8.130559814453125,1.973006010055542,2.9740025997161865,1.008525013923645
1765549738155552800,8.140552734375,1.9616609811782837,3.0741753578186035,1.0203510522842407
1765549738165546000,8.1505458984375,2.03488826751709,3.1524910926818848,1.0728693008422852
1765549738175538700,8.16053857421875,2.176151752471924,3.2552428245544434,1.1525652408599854
1765549738185533000,8.170532958984374,2.3457624912261963,3.3764612674713135,1.2564209699630737
1765549738195526000,8.18052587890625,2.5310771465301514,3.4543817043304443,1.3443585634231567
1765549738205518800,8.190518798828125,2.738525867462158,3.4909257888793945,1.4138470888137817
1765549738215511800,8.20051171875,2.939150333404541,3.49108624458313,1.485720157623291
1765549738225504800,8.2105048828125,3.089927911758423,3.4206151962280273,1.5580816268920898
1765549738235499000,8.2204990234375,3.2267754077911377,3.362556219100952,1.6391743421554565
1765549738245492000,8.230491943359375,3.358095407485962,3.3553476333618164,1.7400225400924683
1765549738255485000,8.24048486328125,3.445748805999756,3.4222657680511475,1.8422794342041016
1765549738265478000,8.250477783203126,3.4968481063842773,3.5153934955596924,1.9101589918136597
1765549738275472000,8.260471923828124,3.5313425064086914,3.604454517364502,1.9420838356018066
1765549738285464800,8.27046484375,3.5639195442199707,3.708254098892212,1.9507300853729248
1765549738295457800,8.280457763671874,3.580516815185547,3.790130138397217,1.9418662786483765
1765549738305451000,8.290450927734375,3.586305618286133,3.8068344593048096,1.9216481447219849
1765549738315443700,8.300443603515625,3.608738660812378,3.7553493976593018,1.900753140449524
1765549738325437700,8.310437744140625,3.6797447204589844,3.672394275665283,1.9163910150527954
1765549738335431000,8.320430908203125,3.797468900680542,3.59664249420166,1.9632680416107178
1765549738345424000,8.330423828125,3.947035789489746,3.5380561351776123,2.017838716506958
1765549738355416800,8.340416748046875,4.1180548667907715,3.4205775260925293,2.0599067211151123
1765549738365409800,8.350409912109376,4.278759002685547,3.2746331691741943,2.1087565422058105
1765549738375403800,8.36040380859375,4.388803005218506,3.141784191131592,2.157953977584839
1765549738385397000,8.37039697265625,4.430149555206299,2.9983067512512207,2.219489812850952
1765549738395389700,8.3803896484375,4.401705265045166,2.9280693531036377,2.264740228652954
1765549738405383000,8.3903828125,4.3371477127075195,2.9913227558135986,2.220616102218628
1765549738415377000,8.400376953125,4.17388916015625,3.198037624359131,2.092902660369873
1765549738425369900,8.410369873046875,3.8635685443878174,3.488008975982666,1.923838496208191
1765549738435362800,8.42036279296875,3.47629714012146,3.8190512657165527,1.7619407176971436
1765549738445355800,8.430355712890625,3.124882936477661,3.9644265174865723,1.616836428642273
1765549738455349000,8.440348876953125,2.9374020099639893,3.7654755115509033,1.5351945161819458
1765549738465342700,8.4503427734375,2.980619192123413,3.336085796356201,1.4980356693267822
1765549738475336000,8.4603359375,3.1842920780181885,2.7123169898986816,1.5450388193130493
1765549738485329000,8.470328857421874,3.431062698364258,2.040505886077881,1.695438027381897
1765549738495322000,8.480322021484374,3.5821292400360107,1.431264042854309,1.870054006576538
1765549738505314800,8.490314697265624,3.5515100955963135,0.9544392824172974,1.995449185371399
1765549738515308800,8.500308837890625,3.3364012241363525,0.6641930937767029,2.0614192485809326
1765549738525302000,8.510302001953125,2.9713406562805176,0.5641975998878479,2.038074254989624
1765549738535294700,8.520294677734375,2.4896175861358643,0.5505161285400391,1.8869351148605347
1765549738545288000,8.530287841796875,1.9700947999954224,0.5618414878845215,1.588314175605774
1765549738555282000,8.540281982421876,1.4948891401290894,0.5136345624923706,1.1769659519195557
1765549738565274600,8.550274658203126,1.136892557144165,0.37038177251815796,0.739128589630127
1765549738575267800,8.560267822265626,0.8880002498626709,0.19812984764575958,0.3843950033187866
1765549738585260800,8.5702607421875,0.6872886419296265,0.06808998435735703,0.1582595407962799
1765549738595254000,8.58025390625,0.5210850238800049,-0.06863243877887726,0.002608692739158869
1765549738605247700,8.590247802734375,0.3634738624095917,-0.2875199317932129,-0.18757982552051544
1765549738615240700,8.60024072265625,0.18626713752746582,-0.5338658094406128,-0.4273202419281006
1765549738625234000,8.61023388671875,0.030388493090867996,-0.7646082639694214,-0.6455730199813843
1765549738635226600,8.6202265625,-0.11388825625181198,-0.9532243013381958,-0.8354910612106323
1765549738645220900,8.630220947265625,-0.292699933052063,-1.133411169052124,-1.0277389287948608
1765549738655213800,8.6402138671875,-0.5286293625831604,-1.3341056108474731,-1.238438606262207
1765549738665206800,8.650206787109376,-0.7982888221740723,-1.5163124799728394,-1.4792171716690063
1765549738675199700,8.66019970703125,-1.0511844158172607,-1.7257561683654785,-1.7532199621200562
1765549738685192700,8.670192626953124,-1.2612675428390503,-1.946570873260498,-2.0265438556671143
1765549738695187000,8.68018701171875,-1.4560918807983398,-2.16532564163208,-2.2703604698181152
1765549738705180000,8.690179931640625,-1.6530067920684814,-2.418358325958252,-2.4461004734039307
1765549738715172900,8.7001728515625,-1.8601616621017456,-2.6666829586029053,-2.5341007709503174
1765549738725165800,8.710165771484375,-2.0912094116210938,-2.867781400680542,-2.6308834552764893
1765549738735159800,8.720159912109375,-2.380286693572998,-3.019545078277588,-2.7808327674865723
1765549738745153000,8.730153076171876,-2.761895179748535,-3.225567102432251,-2.946410894393921
1765549738755145700,8.740145751953126,-3.2211196422576904,-3.511644124984741,-3.1101438999176025
1765549738765139000,8.750138916015626,-3.738600492477417,-3.6836929321289062,-3.2320313453674316
1765549738775132000,8.7601318359375,-4.2373738288879395,-3.7228314876556396,-3.406010389328003
1765549738785125600,8.770125732421874,-4.567613124847412,-3.7522571086883545,-3.7114527225494385
1765549738795118800,8.780118896484375,-4.723601818084717,-3.8438076972961426,-4.0163702964782715
1765549738805111800,8.79011181640625,-4.782830238342285,-4.058769702911377,-4.1444091796875
1765549738815104800,8.800104736328125,-4.846498489379883,-4.375805377960205,-4.085355281829834
1765549738825097700,8.81009765625,-5.078579425811768,-4.7277045249938965,-3.8601763248443604
1765549738835091700,8.820091796875,-5.507456302642822,-5.055158615112305,-3.604336977005005
1765549738845085000,8.8300849609375,-6.002472400665283,-5.471927642822266,-3.4808695316314697
1765549738855077600,8.84007763671875,-6.444497108459473,-5.881307601928711,-3.494755506515503
1765549738865070800,8.85007080078125,-6.809929847717285,-6.1366424560546875,-3.605133056640625
1765549738875064800,8.86006494140625,-7.157098770141602,-6.387727737426758,-3.742955207824707
1765549738885058000,8.87005810546875,-7.501402854919434,-6.5364670753479,-3.792975902557373
1765549738895050800,8.88005078125,-7.821957588195801,-6.576234817504883,-3.726344585418701
1765549738905044000,8.8900439453125,-8.16801929473877,-6.597259521484375,-3.5194718837738037
1765549738915037000,8.900036865234375,-8.487984657287598,-6.624197006225586,-3.2172088623046875
1765549738925031000,8.910031005859375,-8.728809356689453,-6.749326229095459,-2.879669666290283
1765549738935023900,8.92002392578125,-8.960100173950195,-6.891394138336182,-2.502685546875
1765549738945016800,8.930016845703125,-9.19910717010498,-7.087682723999023,-2.139592170715332
1765549738955010000,8.940010009765626,-9.430106163024902,-7.206273078918457,-1.8479514122009277
1765549738965003800,8.950003662109374,-9.60219669342041,-7.11824893951416,-1.6550854444503784
1765549738974996700,8.959996826171874,-9.676631927490234,-6.873408317565918,-1.5093939304351807
1765549738984990000,8.969989990234374,-9.711484909057617,-6.646213054656982,-1.360938310623169
1765549738994982700,8.979982666015625,-9.807578086853027,-6.508343696594238,-1.1899899244308472
1765549739004975900,8.989975830078125,-9.891496658325195,-6.388277530670166,-0.9400216937065125
1765549739014969900,8.999969970703125,-9.84329891204834,-6.171607494354248,-0.5538905262947083
1765549739024962800,9.009962890625,-9.617857933044434,-5.949925899505615,-0.010476685129106045
1765549739034955800,9.019955810546875,-9.15640926361084,-5.833648204803467,0.5872346758842468
1765549739044948700,9.02994873046875,-8.477497100830078,-5.938488483428955,1.1948386430740356
1765549739054942000,9.03994189453125,-7.741410732269287,-6.266042232513428,1.892687201499939
1765549739064936000,9.04993603515625,-7.052778720855713,-6.4612298011779785,2.5800113677978516
1765549739074928600,9.0599287109375,-6.529437065124512,-6.564466953277588,3.1530039310455322
1765549739084921900,9.069921875,-6.171496868133545,-6.68206262588501,3.540357828140259
1765549739094914800,9.079914794921875,-5.841440677642822,-6.7837395668029785,3.716972589492798
1765549739104909000,9.089908935546875,-5.505678653717041,-6.859485149383545,3.719310760498047
1765549739114901800,9.09990185546875,-5.200660228729248,-6.968191623687744,3.5822455883026123
1765549739124895000,9.10989501953125,-4.934201240539551,-7.087189197540283,3.3373637199401855
1765549739134888000,9.119887939453125,-4.715809345245361,-7.079549789428711,3.088754653930664
1765549739144881000,9.129880859375,-4.586541175842285,-6.856489181518555,2.9085423946380615
1765549739154875000,9.139875,-4.671419620513916,-6.549750328063965,2.7781124114990234
1765549739164867800,9.149867919921874,-4.89598274230957,-6.417954921722412,2.6296095848083496
1765549739174860800,9.15986083984375,-5.068603038787842,-6.608070373535156,2.4157652854919434
1765549739184853800,9.169853759765624,-5.113759994506836,-7.051090717315674,2.1403698921203613
1765549739194847700,9.17984765625,-5.049742698669434,-7.41770601272583,1.8613792657852173
1765549739204841000,9.189841064453125,-4.918059825897217,-7.532339572906494,1.5548737049102783
1765549739214833700,9.199833740234375,-4.855863094329834,-7.331057548522949,1.2517750263214111
1765549739224827000,9.209826904296875,-4.841652870178223,-6.633252143859863,1.133244514465332
1765549739234819800,9.21981982421875,-4.761886119842529,-5.615639686584473,1.143883228302002
1765549739244813800,9.229813720703126,-4.637513160705566,-4.6308369636535645,1.0637041330337524
1765549739254806800,9.239806884765626,-4.450934886932373,-4.030280590057373,0.8608690500259399
1765549739264799700,9.2497998046875,-3.741220235824585,-4.505403995513916,1.0094295740127563
1765549739274793000,9.25979296875,-3.2396252155303955,-1.4078848361968994,2.2447409629821777
1765549739284785700,9.26978564453125,-2.9554295539855957,-3.4221534729003906,3.333735704421997
1765549739294780000,9.27977978515625,-2.546276330947876,-3.5590574741363525,2.222705841064453
1765549739304772900,9.28977294921875,-2.1281585693359375,-3.472198009490967,0.9949982762336731
1765549739314765800,9.299765869140625,-1.9172166585922241,-2.031263589859009,0.5314721465110779
1765549739324758800,9.3097587890625,-1.826483130455017,-0.9317302107810974,0.5932937264442444
1765549739334751700,9.319751708984375,-1.6465591192245483,-0.4044847786426544,0.7895287275314331
1765549739344746000,9.32974609375,-1.2973705530166626,-0.37534865736961365,0.9256522059440613
1765549739354739000,9.339739013671876,-0.9494280219078064,-0.46769803762435913,1.0121049880981445
1765549739364732000,9.34973193359375,-0.598156750202179,-0.4788530170917511,1.0310289859771729
1765549739374724900,9.359724853515624,-0.24937909841537476,-0.43972906470298767,0.9960789680480957
1765549739384718800,9.36971875,0.04471740499138832,-0.3599998950958252,0.897641122341156
1765549739394711800,9.3797119140625,0.2236088514328003,-0.3014218211174011,0.6962456703186035
1765549739404704800,9.389704833984375,0.3016068637371063,-0.22887887060642242,0.4099746644496918
1765549739414698000,9.399697998046875,0.3301737904548645,-0.11348117887973785,0.10863930732011795
1765549739424690700,9.409690673828125,0.28749409317970276,0.12938515841960907,-0.056835733354091644
1765549739434684700,9.4196845703125,0.20231691002845764,0.4701898694038391,0.0017434266628697515
1765549739444678000,9.429677978515626,0.203369140625,0.6400009989738464,0.04694409295916557
1765549739454670800,9.4396708984375,0.3187069296836853,0.784757137298584,0.061514515429735184
1765549739464663800,9.449663818359374,0.4971458315849304,0.7870991826057434,-0.015309007838368416
1765549739474656800,9.45965673828125,0.7640745043754578,0.7224165797233582,-0.2414577305316925
1765549739484650800,9.469650634765625,1.0369997024536133,0.6143782138824463,-0.5023011565208435
1765549739494644000,9.47964404296875,1.2529844045639038,0.6007055640220642,-0.6418033838272095
1765549739504636700,9.48963671875,1.6156259775161743,0.5379130244255066,0.18025441467761993
1765549739514630000,9.4996298828125,1.8719844818115234,0.6262058615684509,0.1217956468462944
1765549739524622800,9.509622802734375,2.083096504211426,0.9122353196144104,0.07281280308961868
1765549739534616800,9.519616943359376,2.170093059539795,1.1626654863357544,-0.21086286008358002
1765549739544609800,9.52960986328125,2.1306989192962646,1.3485281467437744,-0.553693950176239
1765549739554602800,9.539602783203126,2.055633544921875,1.5501344203948975,-0.8380290269851685
1765549739564596000,9.549595947265624,2.0323565006256104,1.7302135229110718,-1.0071523189544678
1765549739574589200,9.559589111328124,2.0774927139282227,1.8164623975753784,-1.0856695175170898
1765549739584582400,9.56958251953125,2.204408884048462,1.8296147584915161,-1.1383899450302124
1765549739594575400,9.579575439453125,2.3827438354492188,1.776936650276184,-1.223730444908142
1765549739604568300,9.589568359375,2.5536932945251465,1.768730640411377,-1.299367070198059
1765549739614561300,9.599561279296875,2.667741298675537,1.84172785282135,-1.3206095695495605
1765549739624555300,9.60955517578125,2.7700555324554443,1.898160457611084,-1.2991613149642944
1765549739634548500,9.619548583984376,2.900209665298462,1.965506672859192,-1.2744131088256836
1765549739644541200,9.629541259765626,3.068082094192505,2.062262773513794,-1.2551217079162598
1765549739654534400,9.639534423828126,3.271136522293091,2.133549451828003,-1.22080397605896
1765549739664527400,9.64952734375,3.4639148712158203,2.1507270336151123,-1.1816884279251099
1765549739674521300,9.659521240234374,3.585573434829712,2.1252224445343018,-1.1000961065292358
1765549739684514300,9.669514404296875,3.6411755084991455,2.1144707202911377,-0.9774956703186035
1765549739694507300,9.67950732421875,3.647465705871582,2.1519908905029297,-0.8581519722938538
1765549739704500500,9.68950048828125,3.5875818729400635,2.222026824951172,-0.7228204607963562
1765549739714493200,9.6994931640625,3.4957122802734375,2.30539870262146,-0.5654231309890747
1765549739724487400,9.7094873046875,3.4413857460021973,2.3491649627685547,-0.42789632081985474
1765549739734480400,9.71948046875,3.4381449222564697,2.431417942047119,-0.3318195641040802
1765549739744473300,9.729473388671876,3.4381024837493896,2.4929893016815186,-0.33902785181999207
1765549739754466300,9.73946630859375,3.4428796768188477,2.5580339431762695,-0.41960203647613525
1765549739764459300,9.749459228515626,3.483086109161377,2.641721725463867,-0.5059877634048462
1765549739774453500,9.75945361328125,3.4926130771636963,2.68527889251709,-0.5923455357551575
1765549739784446200,9.7694462890625,3.458960771560669,2.7159435749053955,-0.6013519763946533
1765549739794439400,9.779439453125,3.3828344345092773,2.6595041751861572,-0.5926556587219238
1765549739804432400,9.789432373046875,3.2748024463653564,2.5134408473968506,-0.6213745474815369
1765549739814426400,9.79942626953125,3.1751673221588135,2.409637928009033,-0.6255477070808411
1765549739824419300,9.80941943359375,3.133931875228882,2.4339895248413086,-0.6067148447036743
1765549739834412300,9.819412353515625,3.130579948425293,2.6328372955322266,-0.5419491529464722
1765549739844405500,9.829405517578126,3.181882619857788,2.994596242904663,-0.4290713965892792
1765549739854398200,9.839398193359376,3.3583180904388428,3.3119828701019287,-0.3627576231956482
1765549739864392200,9.84939208984375,3.5923733711242676,3.5075032711029053,-0.4042780101299286
1765549739874385400,9.859385498046874,3.7890145778656006,3.56347918510437,-0.5567096471786499
1765549739884378400,9.86937841796875,3.8764777183532715,3.3977997303009033,-0.7176468372344971
1765549739894371300,9.879371337890625,3.8572144508361816,3.1541168689727783,-0.7916864156723022
1765549739904364300,9.8893642578125,3.7918057441711426,2.9769575595855713,-0.758597731590271
1765549739914358300,9.899358154296875,3.751871109008789,2.9279274940490723,-0.576591968536377
1765549739924351200,9.909351318359375,3.7689826488494873,3.0126352310180664,-0.31167471408843994
1765549739934344200,9.91934423828125,3.8098180294036865,3.247307777404785,-0.1236528679728508
1765549739944337400,9.92933740234375,3.820295810699463,3.4794199466705322,-0.1301788091659546
1765549739954330400,9.939330322265626,3.7747042179107666,3.6308252811431885,-0.3303947448730469
1765549739964324400,9.949324462890624,3.6982839107513428,3.6824042797088623,-0.6185832023620605
1765549739974317300,9.9593173828125,3.5837244987487793,3.5670108795166016,-0.8405337333679199
1765549739984310300,9.969310302734375,3.3675529956817627,3.2224199771881104,-0.8283015489578247
1765549739994303200,9.97930322265625,3.1432759761810303,2.7522637844085693,-0.5156580805778503
1765549740004297200,9.989297119140625,3.0914556980133057,2.32397198677063,-0.0488680824637413
1765549740014290400,9.99929052734375,3.2297518253326416,2.1119353771209717,0.3818276524543762
1765549740024283400,10.009283447265625,3.450252056121826,2.167268991470337,0.5813518166542053
1765549740034276400,10.0192763671875,3.632051944732666,2.4172322750091553,0.48819899559020996
1765549740044269300,10.029269287109376,3.7058982849121094,2.7124273777008057,0.13052600622177124
1765549740054263300,10.03926318359375,3.6154944896698,3.0189192295074463,-0.37389159202575684
1765549740064256500,10.049256591796874,3.3691160678863525,3.244032144546509,-0.8215752840042114
1765549740074249200,10.059249267578124,3.067134141921997,3.333972454071045,-1.0653501749038696
1765549740084242400,10.069242431640625,2.864654302597046,3.2762908935546875,-1.1011748313903809
1765549740094235400,10.0792353515625,2.7679059505462646,3.089735746383667,-0.9047675132751465
1765549740104229400,10.0892294921875,2.8159260749816895,2.897124767303467,-0.4882817268371582
1765549740114222300,10.099222412109375,3.136643886566162,2.779428243637085,-0.053932931274175644
1765549740124215300,10.10921533203125,3.6639671325683594,2.7563154697418213,0.1971036046743393
1765549740134208500,10.11920849609375,4.12495756149292,2.913515329360962,0.22175940871238708
1765549740144201200,10.129201171875,4.347784996032715,3.139516592025757,0.039287667721509933
1765549740154195200,10.1391953125,4.380843162536621,3.2931106090545654,-0.2998743951320648
1765549740164188400,10.1491884765625,4.280718803405762,3.324988842010498,-0.6633281707763672
1765549740174181000,10.15918115234375,4.127506732940674,3.1329948902130127,-0.898107647895813
1765549740184174300,10.16917431640625,3.9792351722717285,2.8482778072357178,-0.9449205994606018
1765549740194168300,10.179168212890625,3.8257415294647217,2.5419628620147705,-0.7903949618339539
1765549740204161300,10.189161376953125,3.7030653953552246,2.2342004776000977,-0.47336578369140625
1765549740214154200,10.199154296875,3.743828773498535,1.9113792181015015,-0.14051806926727295
1765549740224147200,10.209147216796875,3.9315998554229736,1.8354538679122925,0.02077655680477619
1765549740234140400,10.219140380859375,4.1075639724731445,1.996155023574829,-0.037689413875341415
1765549740244134400,10.229134521484376,4.181260108947754,2.240722894668579,-0.2801942527294159
1765549740254127400,10.23912744140625,4.1827287673950195,2.397258996963501,-0.6144455075263977
1765549740264120300,10.249120361328124,4.135444164276123,2.4282000064849854,-0.8053576946258545
1765549740274113500,10.259113525390624,4.0660786628723145,2.333935022354126,-0.7136658430099487
1765549740284106200,10.269106201171875,4.017005920410156,2.071962833404541,-0.3393710255622864
1765549740294100200,10.279100341796875,3.9528887271881104,1.7318028211593628,0.22784048318862915
1765549740304093400,10.289093505859375,3.7869277000427246,1.3406766653060913,0.8716352581977844
1765549740314086400,10.29908642578125,3.5289905071258545,0.9165911078453064,1.3374781608581543
1765549740324079400,10.309079345703125,3.1850571632385254,0.6235076785087585,1.4475510120391846
1765549740334072300,10.319072265625,2.7032623291015625,0.5364638566970825,1.2641830444335938
1765549740344066300,10.32906640625,2.0787339210510254,0.7379041910171509,0.8782562613487244
1765549740354059300,10.339059326171874,1.3577481508255005,1.1469074487686157,0.3668947219848633
1765549740364052200,10.34905224609375,0.6544369459152222,1.5666173696517944,-0.15290264785289764
1765549740374045400,10.35904541015625,0.08801667392253876,1.856099009513855,-0.5137665867805481
1765549740384038400,10.369038330078125,-0.2982637286186218,1.9552923440933228,-0.6733119487762451
1765549740394032000,10.3790322265625,-0.5306655168533325,1.7907235622406006,-0.639559805393219
1765549740404025300,10.389025390625,-0.6347340941429138,1.354068636894226,-0.44269153475761414
1765549740414018300,10.399018310546875,-0.6489266157150269,0.9187222719192505,-0.12198303639888763
1765549740424011300,10.40901123046875,-0.597111165523529,0.606770932674408,0.268746554851532
1765549740434005200,10.419005126953126,-0.4788450300693512,0.43446069955825806,0.5996578931808472
1765549740443998500,10.42899853515625,-0.38460054993629456,0.35788363218307495,0.8409104943275452
1765549740453991400,10.438991455078124,-0.35307058691978455,0.3612634539604187,0.9693126678466797
1765549740463984000,10.448984130859374,-0.37815937399864197,0.377823144197464,1.029852032661438
1765549740473977300,10.458977294921874,-0.44686785340309143,0.4011697471141815,1.0896037817001343
1765549740483971300,10.468971435546875,-0.5506039261817932,0.4226192831993103,1.1603515148162842
1765549740493964500,10.478964599609375,-0.6738116145133972,0.42329517006874084,1.2167209386825562
1765549740503957200,10.488957275390625,-0.8089607357978821,0.40057381987571716,1.239607334136963
1765549740513950500,10.498950439453125,-0.9227826595306396,0.38711634278297424,1.2088278532028198
1765549740523943400,10.508943359375,-1.0245338678359985,0.44533881545066833,1.127850890159607
1765549740533937200,10.518937255859376,-1.1526471376419067,0.5129008293151855,1.012176752090454
1765549740543930400,10.528930419921876,-1.306490421295166,0.5535776615142822,0.8979793787002563
1765549740553923300,10.53892333984375,-1.4494097232818604,0.5697936415672302,0.8005346059799194
1765549740563916500,10.54891650390625,-1.5614826679229736,0.5284194946289062,0.7349180579185486
1765549740573909200,10.5589091796875,-1.6256067752838135,0.44846659898757935,0.7229399681091309
1765549740583903200,10.5689033203125,-1.5994921922683716,0.34165945649147034,0.7662860751152039
1765549740593896400,10.578896484375,-1.4819892644882202,0.2305108606815338,0.8527253866195679
1765549740603889400,10.588889404296875,-1.2721775770187378,0.08468427509069443,0.9323345422744751
1765549740613882400,10.59888232421875,-1.0230532884597778,0.03300457075238228,0.9722667932510376
1765549740623876400,10.60887646484375,-0.819644033908844,0.03332981839776039,0.936198890209198
1765549740633869300,10.618869384765626,-0.7130537033081055,0.06545232981443405,0.7944979071617126
1765549740643862500,10.628862548828126,-0.6917217969894409,0.11694329231977463,0.5639216303825378
1765549740653855200,10.638855224609374,-0.7068277597427368,0.16154111921787262,0.3222869336605072
1765549740663848400,10.648848388671874,-0.7002949714660645,0.11931443959474564,0.15241116285324097
1765549740673842400,10.658842529296875,-0.6112822890281677,0.007286165375262499,0.09973090142011642
1765549740683835400,10.66883544921875,-0.45316651463508606,-0.0816894993185997,0.1367546170949936
1765549740693828400,10.678828369140625,-0.29167377948760986,-0.14718514680862427,0.23264332115650177
1765549740703821300,10.6888212890625,-0.1901034116744995,-0.22000864148139954,0.3460924029350281
1765549740713814300,10.698814208984375,-0.1470954865217209,-0.2617877721786499,0.42070722579956055
1765549740723808300,10.708808349609376,-0.1545426845550537,-0.2779623866081238,0.4336434304714203
1765549740733801500,10.718801513671876,-0.20462076365947723,-0.30236679315567017,0.41114237904548645
1765549740743794400,10.72879443359375,-0.27272874116897583,-0.35832929611206055,0.3575093150138855
1765549740753787400,10.738787353515624,-0.33628377318382263,-0.44184842705726624,0.27613773941993713
1765549740763780400,10.7487802734375,-0.3828312158584595,-0.5171241164207458,0.18541035056114197
1765549740773774300,10.7587744140625,-0.43738287687301636,-0.5590190887451172,0.08285576105117798
1765549740783767600,10.768767578125,-0.5036523342132568,-0.5516586303710938,-0.028324786573648453
1765549740793760300,10.77876025390625,-0.5892319679260254,-0.5221747756004333,-0.12094926089048386
1765549740803753500,10.78875341796875,-0.6877402663230896,-0.48713263869285583,-0.17513440549373627
1765549740813746400,10.798746337890625,-0.7637929916381836,-0.4161793887615204,-0.18849894404411316
1765549740823740400,10.808740478515626,-0.8085695505142212,-0.34090691804885864,-0.1577746421098709
1765549740833733400,10.8187333984375,-0.8124194145202637,-0.3389502763748169,-0.11144309490919113
1765549740843726300,10.828726318359376,-0.7787171602249146,-0.39439401030540466,-0.05451574921607971
1765549740853719600,10.838719482421874,-0.7219420075416565,-0.3993490934371948,0.024042177945375443
1765549740863713300,10.84871337890625,-0.6761072278022766,-0.3566891849040985,0.0972859114408493
1765549740873706200,10.858706298828125,-0.6515653729438782,-0.3450532853603363,0.13150806725025177
1765549740883699500,10.868699462890625,-0.6281670331954956,-0.38112109899520874,0.12754929065704346
1765549740893692200,10.878692138671875,-0.5883069634437561,-0.43442589044570923,0.11023902148008347
1765549740903685400,10.888685302734375,-0.5324922800064087,-0.4853394329547882,0.09142154455184937
1765549740913679400,10.898679443359375,-0.5008839964866638,-0.4469022750854492,0.06863580644130707
1765549740923672300,10.90867236328125,-0.522986888885498,-0.30962836742401123,0.027437375858426094
1765549740933665300,10.918665283203126,-0.5878641605377197,-0.1579621434211731,-0.03851979970932007
1765549740943658200,10.928658203125,-0.6424246430397034,-0.06351633369922638,-0.10013789683580399
1765549740953651500,10.9386513671875,-0.6531321406364441,-0.062217243015766144,-0.133879616856575
1765549740963645400,10.9486455078125,-0.6203381419181824,-0.10860735177993774,-0.13715732097625732
1765549740973638400,10.958638427734375,-0.5495201349258423,-0.16185033321380615,-0.12057221680879593
1765549740983631400,10.96863134765625,-0.4686734676361084,-0.19680412113666534,-0.12320640683174133
1765549740993624600,10.97862451171875,-0.3988019824028015,-0.18433786928653717,-0.15526820719242096
1765549741003617300,10.9886171875,-0.36400100588798523,-0.1014844998717308,-0.21076703071594238
1765549741013611300,10.998611328125,-0.3792302906513214,0.050645649433135986,-0.2920011878013611
1765549741023604500,11.0086044921875,-0.43943285942077637,0.18720661103725433,-0.3503369390964508
1765549741033597400,11.018597412109376,-0.4991564154624939,0.2598150372505188,-0.31476590037345886
1765549741043590400,11.02859033203125,-0.5281186699867249,0.2751012444496155,-0.18288882076740265
1765549741053583400,11.038583251953124,-0.5107255578041077,0.20088264346122742,0.030043959617614746
1765549741063577300,11.048577392578125,-0.4517956078052521,0.0733761414885521,0.26181650161743164
1765549741073570600,11.058570556640625,-0.37582921981811523,-0.09409674257040024,0.46357759833335876
1765549741083563300,11.068563232421875,-0.27852097153663635,-0.2380378246307373,0.6110972166061401
1765549741093556500,11.078556396484375,-0.16874095797538757,-0.3283085823059082,0.6796352863311768
1765549741103549400,11.088549560546875,-0.07523433119058609,-0.38551831245422363,0.6827002763748169
1765549741113543200,11.098543212890625,-0.0021691755391657352,-0.3696863353252411,0.6346337199211121
1765549741123536400,11.108536376953126,0.04174480959773064,-0.31561920046806335,0.5277550220489502
1765549741133529300,11.118529296875,0.06506291031837463,-0.2962428629398346,0.36394238471984863
1765549741143522300,11.128522216796876,0.07346557080745697,-0.31006860733032227,0.15785937011241913
1765549741153515300,11.138515380859374,0.079384446144104,-0.29268375039100647,-0.019748173654079437
1765549741163509200,11.14850927734375,0.06748782843351364,-0.2823996841907501,-0.08930078148841858
1765549741173502500,11.15850244140625,0.03635787218809128,-0.32743585109710693,-0.025517547503113747
1765549741183495200,11.1684951171875,0.03720450773835182,-0.3766159415245056,0.13889898359775543
1765549741193488400,11.17848828125,0.13449376821517944,-0.4259856045246124,0.3301970362663269
1765549741203482400,11.188482421875,0.3218480944633484,-0.4709503948688507,0.49789321422576904
1765549741213475600,11.1984755859375,0.5590984225273132,-0.517209529876709,0.6208500266075134
1765549741223468300,11.20846826171875,0.8147270083427429,-0.5578011870384216,0.6926677227020264
1765549741233461500,11.21846142578125,1.0648449659347534,-0.6041674017906189,0.7244107723236084
1765549741243454500,11.228454345703126,1.2846609354019165,-0.6512949466705322,0.7413277626037598
1765549741253448400,11.238448486328124,1.4360393285751343,-0.8335188031196594,0.7415136694908142
1765549741263441400,11.24844140625,1.5686390399932861,-0.8047406077384949,0.8508260846138
1765549741273434400,11.258434326171875,1.7868221998214722,-0.6473376750946045,0.9227346181869507
1765549741283427600,11.268427490234375,2.0120046138763428,-0.6836647391319275,0.8946235775947571
1765549741293420300,11.278420166015625,2.189361810684204,-0.6849523782730103,0.8623500466346741
1765549741303414300,11.288414306640625,2.3583316802978516,-0.6731374263763428,0.8455308079719543
1765549741313407500,11.298407470703125,2.5018253326416016,-0.7755349278450012,0.8081325888633728
1765549741323400200,11.308400146484376,2.536454677581787,-0.8906201720237732,0.7393859624862671
1765549741333393400,11.318393310546876,2.5079238414764404,-0.7754738330841064,0.7797845602035522
1765549741343386400,11.328386474609376,2.433018207550049,-0.5242452621459961,0.8707860708236694
1765549741353380400,11.33838037109375,2.3328678607940674,-0.233442485332489,0.9260445237159729
1765549741363373300,11.348373291015625,2.222787380218506,0.0037322458811104298,0.8971700072288513
1765549741373366300,11.3583662109375,2.1490957736968994,0.18007025122642517,0.7732751965522766
1765549741383359500,11.368359375,2.13444185256958,0.3409680426120758,0.5902625322341919
1765549741393352200,11.378352294921875,2.1719377040863037,0.6099960207939148,0.4040692448616028
1765549741403346200,11.38834619140625,2.239722728729248,0.9442235231399536,0.21079911291599274
1765549741413339400,11.39833935546875,2.3181099891662598,1.298663854598999,-0.004997625015676022
1765549741423332400,11.408332275390626,2.4003236293792725,1.6544933319091797,-0.22005227208137512
1765549741433325300,11.4183251953125,2.4637374877929688,2.0340323448181152,-0.387471079826355
1765549741443318300,11.428318359375,2.4891419410705566,2.4521849155426025,-0.46362781524658203
1765549741453312500,11.4383125,2.5282557010650635,2.7758517265319824,-0.45191097259521484
1765549741463305500,11.448305419921875,2.650284767150879,3.02514386177063,-0.37813326716423035
1765549741473298400,11.45829833984375,2.886626958847046,3.168611526489258,-0.2991679012775421
1765549741483291400,11.46829150390625,3.2334797382354736,3.1837317943573,-0.25184088945388794
1765549741493284400,11.478284423828125,3.633888006210327,3.0900163650512695,-0.21487674117088318
1765549741503278300,11.4882783203125,4.025434970855713,2.956308126449585,-0.1717749983072281
1765549741513271300,11.498271240234375,4.34616756439209,2.8247785568237305,-0.09836149215698242
1765549741523264500,11.508264404296876,4.577852249145508,2.7691450119018555,-0.009904290549457073
1765549741533257500,11.518257568359376,4.707503795623779,2.8076157569885254,0.03908828645944595
1765549741543250400,11.52825048828125,4.734036445617676,2.9596664905548096,0.04170777648687363
1765549741553244400,11.538244384765624,4.684116840362549,3.189831495285034,0.005684795323759317
1765549741563237400,11.5482373046875,4.627746105194092,3.4732155799865723,-0.07026942074298859
1765549741573230300,11.558230224609375,4.584431171417236,3.703087329864502,-0.16406115889549255
1765549741583223300,11.568223388671875,4.571769714355469,3.831153154373169,-0.2567128539085388
1765549741593217300,11.57821728515625,4.611889362335205,3.915292263031006,-0.3228854835033417
1765549741603210500,11.58821044921875,4.673473358154297,3.851341962814331,-0.376809686422348
1765549741613203200,11.598203125,4.7495880126953125,3.731642246246338,-0.3867046535015106
1765549741623196400,11.608196533203126,4.850369453430176,3.6202516555786133,-0.380991131067276
1765549741633189400,11.618189453125,4.960269451141357,3.561340808868408,-0.35538002848625183
1765549741643183000,11.62818310546875,5.031611442565918,3.5673248767852783,-0.32177671790122986
1765549741653176300,11.63817626953125,5.067371368408203,3.5893349647521973,-0.25481978058815
1765549741663169300,11.648169189453125,5.069342136383057,3.632012367248535,-0.11865996569395065
1765549741673162200,11.658162353515625,5.035660743713379,3.681825637817383,0.08263346552848816
1765549741683155200,11.6681552734375,4.978973388671875,3.6714913845062256,0.286173015832901
1765549741693149400,11.6781494140625,4.901354789733887,3.590909719467163,0.4645366370677948
1765549741703142400,11.688142333984375,4.783818244934082,3.4858462810516357,0.6259382963180542
1765549741713135400,11.69813525390625,4.635197639465332,3.3674161434173584,0.7776412963867188
1765549741723128300,11.70812841796875,4.494804859161377,3.215059757232666,0.9531897306442261
1765549741733121300,11.718121337890626,4.34915018081665,3.023378849029541,1.170311689376831
1765549741743115500,11.728115478515624,4.199774742126465,2.7820651531219482,1.3279728889465332
1765549741753108200,11.738108154296874,4.04469108581543,2.518284320831299,1.3738477230072021
1765549741763101400,11.748101318359375,3.874851942062378,2.2825446128845215,1.3337428569793701
1765549741773094400,11.758094482421875,3.7293078899383545,2.063871383666992,1.275490164756775
1765549741783087400,11.76808740234375,3.628274440765381,1.8397719860076904,1.2392175197601318
1765549741793081300,11.778081298828125,3.5214884281158447,1.5024207830429077,1.2639415264129639
1765549741803074300,11.78807421875,3.3503496646881104,1.0517406463623047,1.3526318073272705
1765549741813067500,11.798067626953125,3.148524761199951,0.5698097944259644,1.4938956499099731
1765549741823060200,11.808060302734376,2.926156997680664,0.09348205476999283,1.6365023851394653
1765549741833054200,11.81805419921875,2.657409906387329,-0.3020114600658417,1.6590734720230103
1765549741843047400,11.82804736328125,2.3364486694335938,-0.5753766298294067,1.5044969320297241
1765549741853040000,11.8380400390625,2.0172464847564697,-0.7190994620323181,1.2018102407455444
1765549741863033300,11.848033447265625,1.6755107641220093,-0.7086701989173889,0.850905179977417
1765549741873026300,11.8580263671875,1.229758381843567,-0.5942589640617371,0.5075129270553589
1765549741883020300,11.868020263671875,0.7071561813354492,-0.5156489610671997,0.18364349007606506
1765549741893013200,11.87801318359375,0.2043527215719223,-0.569948673248291,-0.10604984313249588
1765549741903006200,11.888006103515625,-0.247142031788826,-0.7901332378387451,-0.38040441274642944
1765549741912999400,11.89799951171875,-0.6560200452804565,-1.2071197032928467,-0.5925542712211609
1765549741922992000,11.9079921875,-0.9803801774978638,-1.66704261302948,-0.6922481656074524
1765549741932986400,11.917986328125,-1.2268363237380981,-2.0087382793426514,-0.6973667740821838
1765549741942979300,11.927979248046874,-1.4355617761611938,-2.2711851596832275,-0.6987695693969727
1765549741952972300,11.93797216796875,-1.5871905088424683,-2.512444496154785,-0.7610383033752441
1765549741962965200,11.94796533203125,-1.7294738292694092,-2.7812960147857666,-0.8546598553657532
1765549741972958200,11.957958251953125,-1.9074182510375977,-3.0714051723480225,-0.9441157579421997
1765549741982952400,11.967952392578125,-2.1309258937835693,-3.3140997886657715,-1.0359342098236084
1765549741992945400,11.9779453125,-2.419965982437134,-3.5496065616607666,-1.1157269477844238
1765549742002938400,11.9879384765625,-2.7567520141601562,-3.8065953254699707,-1.148071527481079
1765549742012931300,11.997931396484375,-3.0941507816314697,-4.055813312530518,-1.1279878616333008
1765549742022924500,12.007924560546876,-3.3950247764587402,-4.181234836578369,-1.0894807577133179
1765549742032918300,12.017918212890624,-3.6389658451080322,-4.198461055755615,-1.0758416652679443
1765549742042911200,12.0279111328125,-3.82436203956604,-4.135541915893555,-1.084643006324768
1765549742052904400,12.037904541015624,-3.9492907524108887,-4.163802623748779,-1.1211533546447754
1765549742062897400,12.0478974609375,-4.027395248413086,-4.273330211639404,-1.1523703336715698
1765549742072890400,12.057890380859375,-4.099893093109131,-4.4708251953125,-1.1000174283981323
1765549742082884400,12.06788427734375,-4.221444129943848,-4.767567157745361,-0.9680082201957703
1765549742092877300,12.077877197265625,-4.377232074737549,-5.034254550933838,-0.8480921983718872
1765549742102870300,12.087870361328125,-4.562639236450195,-5.277919769287109,-0.8763471841812134
1765549742112863200,12.09786328125,-4.823353290557861,-5.422547340393066,-1.0940378904342651
1765549742122857200,12.107857177734376,-5.177031517028809,-5.465278625488281,-1.431192398071289
1765549742132850400,12.117850341796874,-5.614528179168701,-5.474762916564941,-1.703479528427124
1765549742142843100,12.127843017578124,-6.116048336029053,-5.521264553070068,-1.8059980869293213
1765549742152836400,12.13783642578125,-6.67983865737915,-5.637211322784424,-1.6624747514724731
1765549742162829300,12.147829345703125,-7.192471981048584,-5.735599517822266,-1.4198291301727295
1765549742172823600,12.157823486328125,-7.610261917114258,-5.76477575302124,-1.2663929462432861
1765549742182816300,12.167816162109375,-8.008964538574219,-5.713510036468506,-1.1908460855484009
1765549742192809200,12.177809326171875,-8.405230522155762,-5.617712497711182,-1.1455390453338623
1765549742202802400,12.187802490234375,-8.740724563598633,-5.479179859161377,-1.0522980690002441
1765549742212795100,12.197795166015625,-8.996143341064453,-5.335572719573975,-0.9087204933166504
1765549742222789400,12.207789306640626,-9.152839660644531,-5.247231483459473,-0.7538031339645386
1765549742232782300,12.2177822265625,-9.221606254577637,-5.20628023147583,-0.554057776927948
1765549742242775600,12.227775634765624,-9.221311569213867,-5.206124305725098,-0.3332981467247009
1765549742252768300,12.237768310546874,-9.170361518859863,-5.150125980377197,-0.09407862275838852
1765549742262761500,12.247761474609375,-9.064081192016602,-5.052349090576172,0.17270228266716003
1765549742272755500,12.25775537109375,-8.86748218536377,-4.98281717300415,0.4239451289176941
1765549742282748200,12.267748046875,-8.610811233520508,-4.992475986480713,0.6100794076919556
1765549742292741400,12.277741455078125,-8.353464126586914,-5.067087650299072,0.7508794069290161
1765549742302734300,12.287734375,-8.107413291931152,-5.1128387451171875,0.9358857274055481
1765549742312728300,12.297728271484376,-7.791172504425049,-5.05722188949585,1.2022497653961182
1765549742322721300,12.30772119140625,-7.372517108917236,-5.044808387756348,1.5327863693237305
1765549742332714200,12.31771435546875,-6.869382381439209,-5.136826038360596,1.882182240486145
1765549742342707500,12.32770751953125,-6.337266445159912,-5.215373516082764,2.1625349521636963
1765549742352700200,12.3377001953125,-5.835535049438477,-5.271059036254883,2.3068747520446777
1765549742362694100,12.347694091796875,-5.385369777679443,-5.298595428466797,2.333266019821167
1765549742372687400,12.357687255859375,-4.9799652099609375,-5.2925028800964355,2.3096470832824707
1765549742382680300,12.367680419921875,-4.5951247215271,-5.226492881774902,2.313765525817871
1765549742392673300,12.37767333984375,-4.2215986251831055,-5.14985990524292,2.352419376373291
1765549742402666200,12.387666259765625,-3.8947861194610596,-5.2190022468566895,2.383732318878174
1765549742412660500,12.397660400390626,-3.622464179992676,-5.318227291107178,2.4495291709899902
1765549742422653400,12.4076533203125,-3.4407641887664795,-5.355323791503906,2.5775864124298096
1765549742432646400,12.417646484375,-3.347076892852783,-5.439831256866455,2.6748876571655273
1765549742442639400,12.427639404296874,-3.316385507583618,-5.524275779724121,2.698889970779419
1765549742452632300,12.43763232421875,-3.268923044204712,-5.56056547164917,2.637296199798584
1765549742462626300,12.447626220703125,-3.2025840282440186,-5.579468727111816,2.5002219676971436
1765549742472619300,12.457619384765625,-3.130957841873169,-5.614902973175049,2.301759719848633
1765549742482612500,12.467612548828125,-3.059390068054199,-5.664561748504639,2.1444525718688965
1765549742492605400,12.47760546875,-2.9365038871765137,-5.784450054168701,2.113947868347168
1765549742502598400,12.487598388671875,-2.748385190963745,-5.919774055480957,2.1640589237213135
1765549742512592400,12.49759228515625,-2.584153175354004,-6.062207221984863,2.207144260406494
1765549742522585300,12.50758544921875,-2.4555366039276123,-6.246869087219238,2.136822462081909
1765549742532578300,12.517578369140624,-2.3603649139404297,-6.392857074737549,1.913051962852478
1765549742542571300,12.5275712890625,-2.38283634185791,-6.28678560256958,1.5980578660964966
1765549742552564500,12.537564453125,-2.571805477142334,-5.980216979980469,1.287721037864685
