time,seconds_elapsed,z,y,x
1765549730101019100,0.08601904296875,0.31464696417450905,0.12902151671051978,0.09832067349851131
1765549730111012000,0.09601220703125,0.43324061037302014,0.16668109301924705,0.10381327956542372
1765549730121005000,0.106005126953125,0.5103548297137022,0.15617606561779976,0.12149864692501723
1765549730130998000,0.115998046875,0.4691261627465486,0.0757604666441679,0.18064685533381997
1765549730140992300,0.1259921875,0.35736616196036336,0.07772679828107357,0.1965150902688503
1765549730150985000,0.13598486328125,0.17976093934476375,0.103144148132205,0.15845244958456606
1765549730160978200,0.145978271484375,0.11953121930956839,0.09087211105823516,0.12291534532252699
1765549730170971100,0.15597119140625,0.18454875814318655,0.14014964444637298,0.11377579758800566
1765549730180964000,0.165964111328125,0.20982582274079323,0.15401041201651094,0.08803491487093269
1765549730190958000,0.1759580078125,0.29797932249009607,0.10936989077925681,0.05922204082999378
1765549730200951000,0.185950927734375,0.24045418523848056,0.050908933982253074,0.0512777672946453
1765549730210944300,0.1959443359375,0.126807347792387,0.031280104404687877,0.03443199256435037
1765549730220937000,0.20593701171875,0.20331366436779497,0.05255202501416206,-0.036115269476175306
1765549730230930200,0.21593017578125,0.26528818224370476,0.07142565231025219,-0.03869940421786159
1765549730240924200,0.225924072265625,0.37710838878452774,0.10887596978247165,0.07787358634062111
1765549730250917000,0.235917236328125,0.5094651873975992,0.1711579461723566,0.16829261986911295
1765549730260910000,0.24591015625,0.6832289321541786,0.16475100173950194,0.18025321637373418
1765549730270903000,0.255903076171875,0.7647709048092365,0.07458908477723598,0.13683387096188962
1765549730280896300,0.265896240234375,0.842790548557043,-0.046668812194466586,0.040156288495287296
1765549730290890000,0.275889892578125,0.8036316736012696,-0.07532733592391014,-0.07512366657797247
1765549730300883000,0.285883056640625,0.9238976369261741,-0.058141807845234865,-0.12457648346778005
1765549730310876200,0.295876220703125,1.0888169809699058,-0.057796355408430096,-0.17473492787629366
1765549730320868900,0.305868896484375,1.1439730510026216,0.02178571535050869,-0.16336089908797294
1765549730330862000,0.315862060546875,1.0392693984687327,0.1707750843346119,-0.15398410853147507
1765549730340856000,0.32585595703125,0.673293229073286,0.20905600741207597,-0.18112762458808718
1765549730350849000,0.33584912109375,0.3252782483041286,0.24342706356942653,-0.12373168494040146
1765549730360842000,0.345842041015625,0.32351416124105453,-0.07386193954646587,-0.231804960037861
1765549730370835000,0.3558349609375,-0.3213175279796123,-0.3524605620011687,-0.3518657013805583
1765549730380828200,0.365828125,-0.2747463309407234,-0.07259411156773567,-0.25295071525070817
1765549730390822100,0.375822265625,-0.16908990772664545,0.30003742406368256,-0.03699513931693509
1765549730400815000,0.385815185546875,0.1186509293437004,0.41395694097131486,-0.031035454594390464
1765549730410808000,0.39580810546875,0.8108335678040981,0.3580360240459442,-0.08276769679142161
1765549730420801300,0.40580126953125,1.0245160659730435,0.29928485213071104,-0.056994464441016315
1765549730430794000,0.4157939453125,1.0786439620018005,0.17660890505462884,-0.04129528419626877
1765549730440787200,0.425787109375,1.0181038608431816,-0.008394903379678726,-0.07279389018984511
1765549730450781200,0.43578125,0.7044774718880653,0.04427753314375877,-0.1555208896446973
1765549730460774100,0.445774169921875,-0.2048036106646061,-0.0836637871146202,-0.5744017699494958
1765549730470767000,0.45576708984375,-0.8796358858734369,0.0685600337460637,-0.7615965856220572
1765549730480760000,0.465760009765625,-1.0407517459809779,0.3902747443497181,-0.5712452421473339
1765549730490753300,0.475753173828125,-1.1152093133330345,0.5707043767362833,-0.52574876166787
1765549730500747000,0.4857470703125,-0.8423480654865503,0.7397814249813556,-0.4297964978011325
1765549730510740000,0.495739990234375,-0.5821382094204426,0.6949196622088551,-0.3813819744504988
1765549730520733200,0.505733154296875,-0.6543395222783088,0.4808732991635799,-0.4406355429299175
1765549730530726100,0.51572607421875,-0.6265443373799323,0.14570552500784395,-0.5875591384906321
1765549730540719000,0.525718994140625,-0.6769961752444505,-0.28568828845471145,-0.8943331042677164
1765549730550713000,0.535713134765625,-0.6925432884663343,-0.4395657217413187,-1.1542699155461043
1765549730560705300,0.545705322265625,-0.6833563579261303,-0.33144612328410145,-1.2986337436214088
1765549730570698200,0.5556982421875,-0.529081742015481,-0.20826047312021254,-1.349389825129509
1765549730580691500,0.56569140625,-0.5293851088762282,-0.023631050956249237,-1.2117287826284766
1765549730590684200,0.57568408203125,-0.762513481271267,0.18652385760843754,-1.0842947543051094
1765549730600678100,0.58567822265625,-0.891653655925393,0.33403847786486146,-1.0090940404355526
1765549730610671400,0.59567138671875,-0.8576298057705164,0.27789105870723724,-1.1465986502658576
1765549730620664300,0.605664306640625,-0.5438964493095875,0.18872633608877656,-1.2098090666122734
1765549730630657300,0.6156572265625,-0.4119137447059154,0.02245966908931732,-0.9523254206396639
1765549730640650200,0.625650146484375,-0.8536258308261633,-0.11985212182700633,-0.7197035364620387
1765549730650644200,0.635644287109375,-1.2575935849636792,-0.20696984878778457,-0.5935175354383886
1765549730660637200,0.64563720703125,-1.881699881541729,-0.22427111220061777,-0.4326945207975805
1765549730670630100,0.655630126953125,-2.187760219156742,-0.2238742218375206,-0.2758794266238809
1765549730680623400,0.665623291015625,-2.2376240280002353,-0.18044366091191769,-0.09196845492757856
1765549730690616000,0.675615966796875,-2.2871984985083342,0.13004267645180226,0.09741963300555943
1765549730700610000,0.685610107421875,-2.307875375834107,0.29534897398650645,0.3115097621273249
1765549730710603300,0.695603271484375,-2.5290122816622254,0.32189094395339485,0.4310328711956739
1765549730720596200,0.70559619140625,-2.3061703254818915,0.36761926042735577,0.44507513281255956
1765549730730589200,0.715589111328125,-1.3846540307343005,0.2758598451405763,0.42386378328390417
1765549730740582100,0.72558203125,-0.28914544317126273,0.3299164294987917,0.48186304085329174
1765549730750576400,0.735576416015625,0.20248656589388847,0.42710137696564193,0.397983857422322
1765549730760569300,0.7455693359375,0.626388270035386,0.6068816055327654,0.10151391658186912
1765549730770562000,0.75556201171875,0.8108166166692972,0.7232990767359733,0.025832652653753757
1765549730780555300,0.76555517578125,0.3514706741809845,0.6662929949223995,-0.002592354580760002
1765549730790548200,0.77554833984375,-0.4112760313242674,0.6331067646354437,-0.15465587031319736
1765549730800542500,0.78554248046875,-1.1320336068838834,0.6566320171296596,-0.7341963183254003
1765549730810535200,0.79553515625,-1.314088794645667,0.9491004672437906,-1.660746515586972
1765549730820528400,0.8055283203125,-0.6769839002847671,1.1182289534151553,-2.384431522900611
1765549730830521300,0.815521240234375,-0.022330489751696585,0.9490659804522991,-2.706938991317153
1765549730840514300,0.825514404296875,0.009070610684156417,0.6644055737406015,-2.819092375335097
1765549730850508300,0.83550830078125,-0.020989012014865874,0.5008943429291248,-2.8429525588721036
1765549730860501200,0.845501220703125,0.20422785660326478,0.4650058679461479,-2.937895280370116
1765549730870494500,0.855494384765625,0.5670388399660587,0.5261152934253216,-2.931882595951855
1765549730880487200,0.865487060546875,1.4625053321778774,0.6368085417628288,-2.54773773265928
1765549730890480400,0.87548046875,1.9059978719741104,0.9249345787584781,-2.052212807808816
1765549730900474400,0.885474365234375,1.7520020730048418,1.2865209887623785,-1.6653455338150263
1765549730910467000,0.895467041015625,1.3105804942637682,1.3682669595569372,-1.2943302012085913
1765549730920460300,0.905460205078125,0.8956412642568349,1.2539338934123516,-0.956146074906364
1765549730930453200,0.915453369140625,0.7713070285797119,0.9617337388455868,-0.7255413027048111
1765549730940446200,0.9254462890625,0.46598728019893165,0.778667912736535,-0.5662644945926963
1765549730950440200,0.935440185546875,0.026520342656970022,0.9125625884413718,-0.3146900726638734
1765549730960433200,0.94543310546875,-0.15092238287329673,1.1544669724881649,-0.10633834106363356
1765549730970426400,0.95542626953125,0.13452888195514678,1.3086346208930015,0.053126610031723975
1765549730980419000,0.965419189453125,0.710796738037467,1.160875085964799,0.10153905102312565
1765549730990412300,0.975412353515625,1.261879883980751,1.006667105549574,-0.06005553251206874
1765549731000406300,0.98540625,1.8505232375115155,0.8905512476414441,-0.33827859965264795
1765549731010399200,0.995399169921875,2.360848256608844,0.7270347561329603,-0.6957718951240182
1765549731020392200,1.00539208984375,2.652860779649019,0.6034522156059742,-0.845050894704461
1765549731030385200,1.01538525390625,2.490799747645855,0.49477615230977534,-0.6810009539064019
1765549731040378400,1.02537841796875,1.7138801398813723,0.4012707701385021,-0.23529585262723265
1765549731050372400,1.035372314453125,0.7243301733493804,0.26655367213487624,0.09904708807691931
1765549731060365300,1.045365234375,-0.203656778717041,0.1307329968035221,0.14004801070280373
1765549731070358300,1.055358154296875,-0.8063087838560342,-0.10240122081041335,-0.016837883684784172
1765549731080351200,1.065351318359375,-1.5651637426197529,-0.4838941082894802,0.05132504050247371
1765549731090344200,1.07534423828125,-2.1570704818606377,-0.7733318124055862,0.10871486093662679
1765549731100338200,1.085338134765625,-2.4918916345357895,-0.9322703284740448,-0.018119155666977166
1765549731110331400,1.095331298828125,-2.4704139622211456,-1.1076093597233294,-0.15601948681659997
1765549731120324000,1.105323974609375,-1.887971801418066,-1.2666811467826367,-0.14271693765111268
1765549731130317300,1.1153173828125,-1.4076158041268587,-1.1251222200602293,0.15846856046915053
1765549731140310300,1.125310302734375,-1.1196961033582686,-0.972455039346218,0.481174839393422
1765549731150304300,1.13530419921875,-0.7922615538030863,-0.7586603129744529,0.8906425061214714
1765549731160297200,1.145297119140625,-0.8287380578070879,-0.5095651406407355,1.0619743475560097
1765549731170290200,1.155290283203125,-1.153237722954154,-0.5570131205141544,1.1021363351397215
1765549731180283400,1.165283447265625,-1.405679283106327,-0.7740671409428119,1.065178769620508
1765549731190276000,1.175276123046875,-1.5255647226810454,-0.6726040777653456,0.8264536731969565
1765549731200270000,1.18527001953125,-1.6722440611571072,-0.49294952140450476,0.513858600050956
1765549731210263300,1.19526318359375,-1.8211480899453163,-0.44086979007720944,0.3826807090241462
1765549731220256300,1.20525634765625,-2.0571692611724135,-0.29178572854697704,0.4715062628161162
1765549731230249200,1.215249267578125,-2.238861460840702,-0.10596972694694995,0.9291701705016195
1765549731240242200,1.2252421875,-2.4432056373000144,0.04162380376458168,1.6273219464994966
1765549731250236200,1.235236083984375,-2.579666948622465,0.14883213259577752,2.025738057859242
1765549731260229400,1.2452294921875,-2.518128484076261,0.08578852418363093,2.1430738129511475
1765549731270222000,1.25522216796875,-2.0502415077358482,-0.15941431688666344,1.8928771091163157
1765549731280215300,1.26521533203125,-1.1783628118604421,-0.5745563759893179,1.5026692925229668
1765549731290209300,1.275209228515625,-0.9432938267916441,-0.5928285302609205,1.4166547044984996
1765549731300202200,1.2852021484375,-0.46309448136687276,-0.23576631968319414,1.5087695090942084
1765549731310195200,1.2951953125,-0.2609562905192375,0.08130524128973483,1.6597176109306513
1765549731320188200,1.305188232421875,-0.17559212922751902,0.07424713947176932,1.4440084292396902
1765549731330181400,1.315181396484375,-0.02871639139652252,-0.24241700974404812,0.714627402241528
1765549731340174000,1.325174072265625,0.3864256677061319,-0.22438041779398918,0.39369397820867597
1765549731350168300,1.335168212890625,0.8809218340307473,-0.13789046734273433,0.28881431152075526
1765549731360161300,1.345161376953125,1.262679509925842,-0.1120984389603138,0.16652670617513357
1765549731370154200,1.355154296875,0.7589192561715841,0.041187750434875485,0.1348604519970715
1765549731380147200,1.365147216796875,0.5033984347045422,0.32693829047083856,0.2579934221256524
1765549731390141200,1.37514111328125,0.15363573348522186,0.3995405853450298,0.5171831048311666
1765549731400134400,1.385134521484375,-0.2761597048699856,0.6953437328398228,0.6319418855745345
1765549731410127000,1.395127197265625,-0.3387649218648672,0.7329051094710827,0.6201321322500706
1765549731420120300,1.405120361328125,-0.07480418883264064,0.7387146725326776,0.6196040167227387
1765549731430113300,1.41511328125,0.3758206870615482,0.6285527545928955,0.6446866547267883
1765549731440107300,1.425107177734375,0.9317764074772595,0.5405430472284555,0.8245783077791333
1765549731450100200,1.435100341796875,1.1999573885530233,0.6437123298019171,0.9753027569275349
1765549731460093200,1.44509326171875,1.3977087426185608,0.9978069227457046,1.2255338014233856
1765549731470086400,1.45508642578125,1.486547886544466,1.2628840925872324,1.316733463935554
1765549731480079000,1.4650791015625,0.9389677802860736,1.4167793537914752,1.2246835412696002
1765549731490073000,1.475072998046875,0.058359249988198275,1.6011165150105953,1.1516478964794425
1765549731500066300,1.48506640625,-0.7745575548082589,1.4825766448259352,1.3672837937384843
1765549731510059300,1.495059326171875,-1.0305319652616978,1.1854109768062828,1.3866177320227027
1765549731520052200,1.50505224609375,-0.9611807811379433,1.1307950049996376,1.8613889149188994
1765549731530045200,1.515045166015625,-0.0702834965378046,1.1394558658391236,2.2688909806624054
1765549731540039400,1.525039306640625,0.7381026781141757,1.1970704349398613,2.2101493072278795
1765549731550032100,1.5350322265625,0.7887889092564583,1.1964122632920742,2.172876099888235
1765549731560025000,1.545025146484375,0.47291152650415896,1.0531973860561847,2.261632972358167
1765549731570018300,1.555018310546875,0.7091425410896539,1.0017214658409357,2.362072099315375
1765549731580011300,1.56501123046875,1.222785890954733,0.8913649021118879,2.26499426548481
1765549731590005500,1.575005615234375,1.1210761595398187,0.7462497442126274,2.093479176437855
1765549731599998200,1.584998291015625,0.7945172237753868,0.5014344411551952,2.3037891294337807
1765549731609991400,1.594991455078125,0.5014975695192814,0.4022060051620006,2.5290254334047435
1765549731619984400,1.604984375,0.6232131471306085,0.787187319278717,2.6367744449838995
1765549731629977300,1.614977294921875,1.0051309820234775,1.3467115458309649,2.4635396925374864
1765549731639971300,1.624971435546875,0.593010316568613,2.1736785023123026,2.2712255610898135
1765549731649964300,1.63496435546875,0.11758476141691207,2.1563749008119104,1.8578806145370006
1765549731659957500,1.64495751953125,-1.5566063421547411,1.4550953481823206,2.259763963615894
1765549731669950200,1.6549501953125,-4.035011887651682,1.3139514320015906,3.3631191730260848
1765549731679943400,1.664943359375,-5.077560453921556,1.2687404174000023,4.086780653333664
1765549731689937400,1.6749375,-4.173215074205398,1.7067980726659298,2.5691598753944036
1765549731699930400,1.684930419921875,-3.115464262628555,1.9955612385213375,1.300832422709465
1765549731709923300,1.69492333984375,-2.981654342597723,1.5369611459642647,1.8008152037516236
1765549731719916300,1.704916259765625,-2.083555163794756,1.450553028577566,1.973649120312184
1765549731729909500,1.714909423828125,-0.4498258344709873,1.4749293449431657,2.037509013543278
1765549731739903500,1.724903564453125,1.3033932131081818,1.42853876516819,2.2184857584185895
1765549731749896200,1.734896240234375,1.5698866794884203,0.9625240124404429,3.460108597920835
1765549731759889400,1.744889404296875,2.2509002736806867,0.7930208477377891,4.228736470419168
1765549731769882400,1.75488232421875,3.380787516185641,1.0367150378108023,3.7332109610468147
1765549731779875300,1.764875244140625,4.413594440641999,1.4629706116020678,2.46469909170568
1765549731789869300,1.774869384765625,3.3797739552289245,2.3735119233489037,1.4023000159315764
1765549731799862300,1.7848623046875,-0.019546411991119384,2.6133687272161246,3.4477538509994745
1765549731809855200,1.794855224609375,-3.408732923209667,2.851515804556012,4.818661680454015
1765549731819848200,1.80484814453125,-6.437560520392656,3.8410365449935195,5.702081761041283
1765549731829842400,1.814842529296875,-7.891708943113684,4.599299967604876,5.78770895718336
1765549731839835400,1.82483544921875,-7.3152090318411584,4.701002100235224,4.758033316490054
1765549731849828400,1.834828369140625,-6.2752434678018085,3.6062995683580636,3.820514858229458
1765549731859821300,1.8448212890625,-4.97229215324223,2.733488560068607,3.494784774504602
1765549731869814300,1.854814208984375,-3.829610895615816,2.6722780123025176,3.66631272303313
1765549731879808500,1.86480859375,-3.6055128018945455,2.972828646585345,3.602169628946483
1765549731889801200,1.87480126953125,-3.95748674942255,3.1262597974091766,2.9992402681708334
1765549731899794400,1.88479443359375,-3.9191163944959637,3.5014959625810382,2.1972671754315494
1765549731909787400,1.894787353515625,-3.8302223055124283,3.8764994880408046,1.6982365805476902
1765549731919780400,1.9047802734375,-4.269033994016051,3.504152614569664,1.4708292161479593
1765549731929774300,1.9147744140625,-4.792923428085446,3.1332728910416363,1.632348688620329
1765549731939767300,1.924767333984375,-5.605565506616235,3.51760655490458,2.244247245532274
1765549731949760500,1.934760498046875,-6.119192489868402,4.156493656507134,2.4514210924595594
1765549731959753200,1.944753173828125,-6.164414025864005,4.669647761550546,1.8112836985349654
1765549731969746400,1.954746337890625,-6.011637539556622,4.875600542250275,0.5160162164762616
1765549731979740400,1.964740478515625,-5.519426853820681,4.8316351437956095,-0.8213590534716844
1765549731989733000,1.974733154296875,-4.644863156645,5.057229613554477,-1.6154153817370533
1765549731999726300,1.984726318359375,-3.9925364354938266,5.475932580009102,-2.2380901842072607
1765549732009719300,1.99471923828125,-3.618228491082787,5.729058030772209,-2.806692035706341
1765549732019712500,2.00471240234375,-3.417189201387763,5.991725801384448,-3.7072429915755984
1765549732029706200,2.014706298828125,-3.6940906645357607,7.035099128040671,-3.8780832501009104
1765549732039699200,2.02469921875,-4.870613109226524,7.651620668578148,-2.9483421478435394
1765549732049692400,2.0346923828125,-6.137035605072975,7.185038345095514,-1.7350836714297533
1765549732059685000,2.04468505859375,-6.066358725303411,6.397478685373067,-1.281626494719088
1765549732069678300,2.05467822265625,-4.919044547179341,6.454975181052088,-2.0184408865883947
1765549732079672300,2.06467236328125,-2.8654513909280297,6.66006637648642,-2.9027582082763312
1765549732089665500,2.07466552734375,-1.3999766875505446,6.33093086823225,-3.417002446644008
1765549732099658200,2.084658203125,-1.0405629454106091,6.235514684003591,-3.462650683619082
1765549732109651200,2.094651123046875,-2.04615394616127,6.270795840743184,-3.876033916355669
1765549732119645400,2.1046455078125,-3.164968590509891,6.841922242283821,-4.094973019878566
1765549732129638400,2.114638427734375,-4.331488988885283,7.379834941008687,-4.0888323251664636
1765549732139631400,2.12463134765625,-4.575944810980558,7.522721901464462,-4.030909713029861
1765549732149624300,2.134624267578125,-4.321906921547651,7.109190784689783,-4.784394961453974
1765549732159617500,2.144617431640625,-4.99159481960535,6.913592809265851,-5.943007070922851
1765549732169611300,2.154611328125,-5.737687911951541,6.759045221632719,-6.766013891601562
1765549732179604200,2.164604248046875,-5.525343968909978,6.452448292922973,-7.173162613862752
1765549732189597400,2.174597412109375,-5.32470390766561,6.500972377595305,-7.365413032424449
1765549732199590400,2.18459033203125,-4.968998956915736,6.689989805585146,-7.300516489621996
1765549732209583400,2.194583251953125,-4.309783353033661,7.61457834738493,-6.8704767211169
1765549732219577300,2.204577392578125,-3.9526328796505927,8.786648196581005,-5.862019809541106
1765549732229570300,2.2145703125,-4.197790712535381,8.691974939674138,-4.96822680349946
1765549732239563300,2.224563232421875,-4.936549224209785,8.429042380645871,-4.689406647248566
1765549732249556200,2.23455615234375,-4.949889182776213,8.816512004446983,-5.064353181824088
1765549732259550200,2.24455029296875,-4.712700721335411,9.397685168227552,-6.069526833945512
1765549732269543400,2.25454345703125,-4.680536819833517,9.745773214232921,-7.182128595128655
1765549732279536000,2.2645361328125,-4.345252725821733,9.692195937824248,-8.138620926189422
1765549732289529300,2.274529296875,-3.7286838390111923,9.369470881134271,-9.015666795569658
1765549732299522300,2.284522216796875,-2.986670709455013,8.877771067529917,-9.61791197347343
1765549732309516500,2.2945166015625,-1.9900532887548208,8.860198001438379,-10.073936662584543
1765549732319509200,2.30450927734375,-1.546848918250203,8.569876500225067,-10.59806458158493
1765549732329502500,2.31450244140625,-1.245626668316126,8.170731051677466,-10.607490581578016
1765549732339495400,2.324495361328125,-0.5277414333224296,7.876110976487397,-10.30093106226921
1765549732349488400,2.33448828125,-0.004553425520658493,7.485293795824051,-10.512585269480944
1765549732359482400,2.344482421875,0.57738721550107,6.986254140850901,-10.812380701482295
1765549732369475300,2.354475341796875,1.1898720478683709,6.624989217886328,-10.808380233669281
1765549732379468500,2.364468505859375,1.6668951013445854,6.496429473468661,-10.91461357998848
1765549732389461200,2.374461181640625,2.240398753410578,6.795646813321113,-10.567780502480268
1765549732399454500,2.384454345703125,2.958339517983794,7.4006392441064115,-9.7463694265604
1765549732409448400,2.394448486328125,3.750299458491802,7.713880433136224,-9.326918856608867
1765549732419441200,2.404441162109375,4.336723966929316,7.752441926720738,-9.325618879926203
1765549732429434400,2.414434326171875,4.694533781003952,7.71148272434473,-9.517560086408256
1765549732439427300,2.42442724609375,5.162013345587253,7.151006896156072,-9.761989020496607
1765549732449421300,2.43442138671875,6.139411102032661,6.629302404910326,-9.673357381841539
1765549732459414300,2.444414306640625,7.378214061808586,6.685301940029859,-9.680549923694134
1765549732469407200,2.4544072265625,8.264926169678569,6.861054812777042,-9.826458277797698
1765549732479400400,2.464400390625,8.864024281728268,6.629478930521011,-9.383567211025953
1765549732489393200,2.47439306640625,9.261719531467556,6.342051981705427,-8.954819235897064
1765549732499387400,2.484387451171875,9.092249099990726,6.2546063379645345,-8.656092309910058
1765549732509380400,2.49438037109375,8.743060983788967,6.201744516348838,-8.102204043418169
1765549732519373300,2.504373291015625,8.837084252354503,6.1141691087484356,-7.9255042452096935
1765549732529366300,2.5143662109375,8.609940799587964,5.856947913104295,-8.572492820203303
1765549732539359200,2.524359130859375,8.47544465085864,5.504587012085318,-9.508013674905895
1765549732549353500,2.534353515625,8.480542850780486,5.024865221044421,-10.714585513162612
1765549732559347000,2.544346923828125,8.704494229507446,3.8495115278720853,-12.095536013203859
1765549732569339600,2.554339599609375,9.134193221750856,3.0647911832287904,-12.993912255382536
1765549732579332900,2.564332763671875,8.844055260410904,3.469070779794454,-13.787910423719882
1765549732589326800,2.574326904296875,8.763222897329927,3.666641224335134,-14.464531920433043
1765549732599319800,2.58431982421875,9.142857589721679,3.9007302584558725,-14.802814611738919
1765549732609312800,2.594312744140625,9.735024441203475,4.583173300929367,-15.005499915075301
1765549732619305700,2.6043056640625,10.695242514789104,5.3489539673030375,-15.795440332454442
1765549732629299000,2.614298828125,9.24472163491547,5.887725913205743,-18.32187253449559
1765549732639292700,2.624292724609375,5.082898307818174,1.9744931699208914,-14.576460848045349
1765549732649286000,2.634285888671875,6.3648530115783215,-0.2572175423823297,-14.842721090191603
1765549732659278800,2.64427880859375,5.192719449496269,1.3720003008663653,-16.302383307898044
1765549732669272000,2.65427197265625,6.551853839048743,1.6243544749960301,-18.158188869726658
1765549732679264800,2.6642646484375,5.926476791882514,3.0286852661028503,-20.864314791095257
1765549732689258800,2.6742587890625,6.107995388549566,4.901278004342317,-22.90206798865795
1765549732699252000,2.684251953125,6.085526367110013,5.694345613831281,-24.674656338095662
1765549732709244700,2.69424462890625,5.218545964670181,6.470124819388985,-25.594817711102962
1765549732719238000,2.70423779296875,4.014950511875749,7.8051108561128375,-26.508158882701395
1765549732729232000,2.71423193359375,1.5543787292331457,10.326437259447575,-27.673445355367658
1765549732739224800,2.724224853515625,-1.6018132651031016,12.752792299711704,-29.02687305771112
1765549732749217800,2.7342177734375,-3.936354529544711,15.228625948894024,-30.285729794478414
1765549732759210800,2.744210693359375,-5.208769836065173,17.44688535121083,-31.245884155178068
1765549732769204000,2.754203857421875,-5.265280827838182,19.22671826494932,-31.95420544301271
1765549732779198000,2.764197998046875,-5.206429410418868,20.836416730344293,-33.10005773189068
1765549732789190700,2.774190673828125,-6.15315788783431,22.046559412825108,-33.657041626310345
1765549732799184000,2.784183837890625,-8.239081534326075,23.05734973578453,-34.58845855282545
1765549732809176800,2.7941767578125,-10.971561209613084,24.664099872767924,-36.06879297168255
1765549732819170800,2.8041708984375,-13.902075732082128,26.50365806415081,-38.20753518517017
1765549732829163800,2.814163818359375,-17.03477520714998,27.801930280983445,-41.20655801119804
1765549732839157000,2.824156982421875,-20.313094282507894,29.126996981239316,-44.05595258581638
1765549732849150000,2.83414990234375,-23.301245001387596,31.100887655222415,-46.462508700633045
1765549732859142700,2.844142578125,-26.301932545757293,33.55345499510765,-48.18847558414936
1765549732869137000,2.854136962890625,-28.871116678810118,35.502561940968036,-48.077977566123
1765549732879129900,2.8641298828125,-31.47016520425081,37.31671213485002,-46.85294126589298
1765549732889122800,2.874122802734375,-34.11090416895151,39.381423481965065,-45.3900279374361
1765549732899115800,2.88411572265625,-36.31772681597471,41.28349044423103,-43.456265860223766
1765549732909109800,2.89410986328125,-37.90764272253513,42.9389265784502,-41.35168310596943
1765549732919103000,2.90410302734375,-38.287927987790106,43.480736284613606,-39.44960211517811
1765549732929095700,2.914095703125,-37.82815943597555,43.33529788610935,-37.498472723579404
1765549732939089000,2.9240888671875,-35.938411857056614,42.79886110515594,-35.720883204853536
1765549732949081900,2.934081787109375,-33.998970565164086,41.94336889593601,-34.30424764344692
1765549732959075800,2.944075927734375,-33.0822321523428,40.826506554698945,-32.493134625303746
1765549732969068800,2.95406884765625,-32.284626314902305,39.265683471632,-31.169950085532662
1765549732979061800,2.964061767578125,-31.628530888867378,37.804079472208024,-30.452592089283463
1765549732989055000,2.974054931640625,-30.627679776120186,36.26779695615768,-29.519954681062696
1765549732999049000,2.984049072265625,-28.85510779329538,33.84689901225567,-28.350190770721433
1765549733009041700,2.994041748046875,-27.250768224585055,31.5280375475049,-27.41791810415983
1765549733019035000,3.004034912109375,-26.16772631988525,29.66376343253851,-26.86936067730188
1765549733029027800,3.01402783203125,-25.382093828833103,27.607169925427435,-26.46806535724401
1765549733039020800,3.024020751953125,-24.78956632734537,25.74572022023201,-26.442596569466588
1765549733049014800,3.034014892578125,-24.241151523828506,23.762633847880362,-26.367555649268624
1765549733059008000,3.044008056640625,-24.39578562070131,21.25979996356964,-25.825477063035965
1765549733069000700,3.054000732421875,-24.241852950096128,19.87169374655485,-25.142000293600557
1765549733078994000,3.063993896484375,-23.073244055008885,19.473690453779696,-24.296914912104604
1765549733088988000,3.07398779296875,-21.94557741116285,18.933059143745897,-23.074406084525585
1765549733098980900,3.08398095703125,-21.6652898127079,18.03542992054224,-21.558490649199484
1765549733108973800,3.093973876953125,-21.77611048681736,17.648806099915504,-20.424289050626754
1765549733118966800,3.103966796875,-22.156762831819055,17.277464019572733,-19.26950877440572
1765549733128960000,3.1139599609375,-22.263328186571595,17.14628561708927,-17.248713725906608
1765549733138954000,3.1239541015625,-21.37343569509983,16.75803448752165,-14.769232660132646
1765549733148946700,3.13394677734375,-20.4403937977314,15.54111135112047,-13.06339787954092
1765549733158940000,3.14393994140625,-19.501762702053785,14.50347978298664,-11.938925063300132
1765549733168932900,3.153932861328125,-18.442827649128436,14.198123209726809,-10.973271520662307
1765549733178926800,3.1639267578125,-17.435488343405723,14.292553890049456,-9.283729118701816
1765549733188919800,3.173919921875,-17.680579540795087,14.52446178073883,-6.711757985278964
1765549733198912800,3.183912841796875,-18.074922557497022,13.741776449054479,-4.1696500752002
1765549733208906000,3.193906005859375,-18.942609062379596,12.144522454690932,-2.9705922658354043
1765549733218898700,3.203898681640625,-19.92665984697342,11.157026498079299,-2.3037346227675677
1765549733228893000,3.213892822265625,-20.248048686623573,10.859672029489278,-0.8208511039495467
1765549733238886000,3.223885986328125,-19.188165539193154,10.229136576646566,1.1181354299128055
1765549733248878600,3.233878662109375,-18.353939405363796,9.990625926691294,3.463472813656926
1765549733258871800,3.243871826171875,-18.216461025953294,9.86127707772255,5.6970829298406835
1765549733268864800,3.25386474609375,-17.883626078659294,9.639685998386144,7.170641570952534
1765549733278859000,3.26385888671875,-16.833500939655302,9.12646291975975,7.734523408192396
1765549733288851700,3.273851806640625,-15.553526596057415,8.491586807364225,7.727379381656646
1765549733298845000,3.283844970703125,-13.666212966287135,8.060982390713692,7.43734546521306
1765549733308838000,3.293837890625,-11.689265242820978,7.735023174408077,7.314151631742716
1765549733318831900,3.303831787109375,-9.820002818048,7.624353891468048,7.294189040166139
1765549733328824800,3.313824951171875,-8.159302479690313,7.465029006430506,7.0682625619739285
1765549733338817800,3.32381787109375,-6.436857340559363,7.042990758073329,6.318647140720486
1765549733348811000,3.33381103515625,-4.84023112270534,6.569287204408646,5.202212669506669
1765549733358803700,3.3438037109375,-3.779548349329829,5.94381078852117,3.87650767134726
1765549733368797700,3.353797607421875,-3.406683589464426,5.210922630184888,2.5881027685344216
1765549733378791000,3.363791015625,-3.390233974444866,4.450125597442686,1.5738503224223852
1765549733388783900,3.373783935546875,-2.949975009742379,3.891307181072235,0.7908803285777568
1765549733398776800,3.38377685546875,-2.082660260781646,3.461404190689325,0.1958458127051592
1765549733408769800,3.393769775390625,-1.2529302693277597,3.126686498388648,-0.32506840494573114
1765549733418763800,3.403763671875,-0.31260230660438537,2.9413965664893387,-0.741513363340497
1765549733428756700,3.4137568359375,0.642850744536519,2.922846764320135,-1.1106798532098532
1765549733438749700,3.423749755859375,1.2447615759193897,3.0315245811820026,-1.6087398494958876
1765549733448743000,3.433742919921875,1.8260861308693885,2.8652599600091575,-2.3025217398464677
1765549733458737000,3.44373681640625,2.2616923013299703,2.4340181222379207,-2.85855111002028
1765549733468729900,3.453729736328125,2.3843103807389734,2.1586966217577457,-3.185538500329852
1765549733478722800,3.463722900390625,2.2326462395876643,1.959889621159434,-3.6139521289378402
1765549733488715800,3.4737158203125,1.558686071038246,1.2280232070863246,-4.370546741554141
1765549733498708700,3.483708740234375,0.8484943131566047,0.4832148938536644,-4.927746324551105
1765549733508702700,3.49370263671875,0.3372065865069628,0.5172334833115338,-4.992481539312005
1765549733518696000,3.503696044921875,-0.3756301329255104,1.1230006978616118,-4.462599586829543
1765549733528689000,3.51368896484375,-1.050554178071022,1.4613637609273193,-3.5045097574442625
1765549733538681900,3.523681884765625,-1.5941595354795455,1.5347493151336908,-2.3401222794443366
1765549733548675800,3.53367578125,-2.19826407751441,1.7498314509674906,-1.2158780112624168
1765549733558668800,3.543668701171875,-3.0880472633928058,1.8344827878147363,-0.3057294982254505
1765549733568662300,3.553662353515625,-4.3656648147314785,1.8840707023262977,0.1664127974718809
1765549733578655000,3.563655029296875,-6.772543585631251,2.1992364296779034,0.7650222492218017
1765549733588648200,3.573648193359375,-7.587462961444258,2.2948013747274874,1.3361626792877912
1765549733598642200,3.58364208984375,-6.582284633147716,2.740614466425776,1.114290444922447
1765549733608635100,3.59363525390625,-6.348396966817974,3.4355785522982476,0.7584814492762089
1765549733618628000,3.603628173828125,-6.042891340476274,3.0356428301557896,-0.15098784932494164
1765549733628621000,3.61362109375,-5.471838004171848,2.718363471651077,-1.2017676528453827
1765549733638615000,3.623614990234375,-5.368488104334474,2.378395019215345,-1.772026039379835
1765549733648608000,3.63360791015625,-4.952871997979283,1.8275334070682525,-2.2729081073492763
1765549733658601000,3.64360107421875,-4.747598431715369,1.7375152824908493,-2.8543215096265078
1765549733668594200,3.65359423828125,-5.260183212438226,1.8720155228734014,-3.491965917691588
1765549733678587100,3.663587158203125,-11.473699415123463,1.9401082313686608,-3.797815827426314
1765549733688580900,3.673580810546875,-5.823090067166089,1.0361118112206458,-6.094385965391993
1765549733698574000,3.683573974609375,-5.814056865882873,1.2132219437956808,-7.570501889771222
1765549733708567000,3.693567138671875,-5.409309359544515,1.4014923528105019,-7.635855528691411
1765549733718560000,3.70356005859375,-6.11753712387681,1.2692875298887492,-7.517717225044965
1765549733728553000,3.713552978515625,-6.187719498127699,1.493582607486844,-7.097065462610125
1765549733738547200,3.723547119140625,-6.074101302254199,1.5851760185569523,-6.9239031908780335
1765549733748540200,3.7335400390625,-5.818753499266505,1.2572025398194788,-6.867479292866587
1765549733758533000,3.743533203125,-5.285026561793685,1.1535597945153713,-7.011718836975097
1765549733768526000,3.753526123046875,-5.024639011073112,1.63706461122632,-7.4084759290814395
1765549733778520000,3.76352001953125,-4.888540687844157,2.216160968732834,-7.943362557983398
1765549733788513300,3.77351318359375,-4.843063715782761,2.740642523476481,-8.775025563326478
1765549733798506000,3.783506103515625,-5.034150935783982,3.1650913401067253,-10.088568414527177
1765549733808499200,3.793499267578125,-5.361138910615444,3.6327141125530003,-11.065590907919406
1765549733818492200,3.8034921875,-5.790162780076265,4.347451697170734,-10.79983919981718
1765549733828486000,3.81348583984375,-6.023827743566036,5.155227630969882,-9.624930327802897
1765549733838479000,3.82347900390625,-5.914737254250049,5.657856250345707,-8.03554750520587
1765549733848472000,3.83347216796875,-5.706214330801368,6.322161286321282,-6.44148675392568
1765549733858465300,3.84346533203125,-5.259193616878986,7.491130831414461,-5.692634133738279
1765549733868459000,3.853458984375,-4.352609518325329,8.704127734282613,-6.326786023512482
1765549733878452000,3.863451904296875,-3.1469615169152614,9.46818844499588,-7.89846776972413
1765549733888445200,3.873445068359375,-1.9954476951442657,9.784763162362575,-9.750098091694712
1765549733898438000,3.88343798828125,-1.1605942231968045,9.67943582497239,-11.673653832191228
1765549733908431000,3.89343115234375,-0.41494799783527847,9.287315160495043,-13.757994593405723
1765549733918425000,3.903425048828125,0.3257797680854797,8.610292681765555,-15.450561896145343
1765549733928418000,3.91341796875,0.5640304519303143,8.22857709144652,-15.492085162144898
1765549733938411000,3.923410888671875,-0.18191767898723482,8.322931199401616,-13.975692756956814
1765549733948404000,3.933404052734375,-1.5271592983961104,8.461881404930352,-12.091134563374519
1765549733958398200,3.943398193359375,-2.938050178670883,8.577558871421218,-10.377668264991044
1765549733968391200,3.95339111328125,-3.872364287932217,8.864264520224928,-8.56623317528665
1765549733978384100,3.963384033203125,-4.657820837895572,9.156391025033592,-7.377341370627284
1765549733988377000,3.973377197265625,-5.419969869768619,9.58322059932053,-7.205957214483618
1765549733998370000,3.9833701171875,-6.237759248059987,10.144106177353859,-7.838397624164819
1765549734008364300,3.9933642578125,-6.83064096981287,10.40072765353918,-8.769399540138243
1765549734018357000,4.00335693359375,-6.875876534333825,10.325422529447078,-9.666990184897184
1765549734028350200,4.01335009765625,-6.327295142078399,10.310171184301376,-10.565046109080313
1765549734038343200,4.02334326171875,-6.123656483539938,10.420865601682662,-11.052770004791022
1765549734048337000,4.0333369140625,-5.919152732604742,10.178764818280934,-11.49248244152665
1765549734058330000,4.043330078125,-5.716465091180801,9.624356327307224,-12.011454877460002
1765549734068323000,4.053322998046875,-5.767924060261249,9.587360183343291,-12.33494215069413
1765549734078316000,4.06331591796875,-6.16419833728671,9.866838218981027,-12.712224142479895
1765549734088309000,4.07330908203125,-6.555847877120971,10.07231870599389,-12.966556630945204
1765549734098303000,4.083302978515625,-7.278188337957858,10.089175148248671,-13.31094056173563
1765549734108296200,4.093296142578125,-8.485838619101047,9.365233097434043,-13.878229577070474
1765549734118289000,4.103288818359375,-9.35753845127821,8.706537133511901,-14.037033653104304
1765549734128282000,4.1132822265625,-10.119345830106734,8.625036661911011,-13.949322636425494
1765549734138276000,4.123276123046875,-10.19915644892454,8.745219623127579,-13.368849145346879
1765549734148269000,4.13326904296875,-9.985117392402886,8.951856294438242,-12.282438056474923
1765549734158262000,4.143261962890625,-10.280940413641929,9.293951237508654,-11.498536919260024
1765549734168255000,4.1532548828125,-10.561969185853004,8.553231654894352,-12.16806232023239
1765549734178248200,4.163248291015625,-10.934709442555905,6.704870563852786,-14.645774622768164
1765549734188242200,4.1732421875,-12.001789223492144,5.175345120847225,-17.363214549833536
1765549734198235100,4.183235107421875,-12.801771726936101,3.800045193913579,-19.703461332440376
1765549734208228000,4.19322802734375,-12.601297085386514,2.407640402922034,-21.658808633995054
1765549734218221300,4.20322119140625,-10.99215976100564,1.352036686376482,-22.618352753841876
1765549734228215000,4.213215087890625,-9.605909985512495,-0.29615795228183267,-23.103124814009664
1765549734238208000,4.2232080078125,-8.177180666208267,-2.407030600460619,-22.555423127198218
1765549734248201200,4.233201171875,-6.670582509803771,-3.0157205705896017,-20.5024255987525
1765549734258194000,4.24319384765625,-5.235560812357067,-2.4189136382170022,-17.810989881515503
1765549734268187100,4.253187255859375,-3.862061212843656,-2.156612216699123,-15.490746607017517
1765549734278181000,4.26318115234375,-2.7331910384267566,-2.2302967538520693,-13.558992947018146
1765549734288174000,4.273174072265625,-2.0858687014341353,-1.97344672960788,-11.841749468183517
1765549734298167000,4.2831669921875,-1.8211919290870426,-1.514542539537698,-10.588443351280688
1765549734308160000,4.293159912109375,-1.759659309759736,-1.245448243009299,-10.018013115310668
1765549734318154000,4.303154052734375,-1.4949211626142263,-1.2524616289027035,-10.136071339458226
1765549734328147200,4.313147216796875,-1.4979051468610762,-1.5529048572883009,-10.913239953547716
1765549734338140000,4.323139892578125,-1.7980027766793965,-2.2535545875817538,-12.105254274141787
1765549734348133000,4.333133056640625,-1.6438959185510873,-2.992825140431523,-13.08881756747961
1765549734358127000,4.343127197265625,-0.9000608342647552,-3.414535179747641,-13.455522051149606
1765549734368120300,4.353120361328125,0.12455401590764521,-3.8174066630810497,-13.209015141743421
1765549734378113000,4.363113037109375,0.9130553403943776,-4.066176256722212,-12.358497213804721
1765549734388106000,4.37310595703125,1.5454770453751085,-4.008724184706807,-11.169020887255668
1765549734398099200,4.38309912109375,2.149835269910097,-3.751136493837833,-9.990809466564654
1765549734408093000,4.393093017578125,2.743093423759937,-3.350273719978332,-9.102095955744385
1765549734418086100,4.403086181640625,3.36338863761723,-2.887805553816259,-8.410290333902836
1765549734428079000,4.4130791015625,3.886716930672526,-2.4154060684874654,-7.8155147612273685
1765549734438072000,4.423072021484375,4.209439649274945,-2.22021462803781,-7.414231131607294
1765549734448066000,4.433066162109375,3.9697371591866015,-2.48717162027657,-7.465493701332807
1765549734458059000,4.44305908203125,3.562949671453237,-3.0266712959319353,-7.559266210007667
1765549734468052200,4.45305224609375,3.345937736600637,-3.2741496807187795,-7.373489955896138
1765549734478045000,4.463044921875,3.1351375158697365,-3.3517928923696276,-6.926143663281202
1765549734488038100,4.4730380859375,2.9644425110340116,-3.0618963385701177,-6.172710729566216
1765549734498032000,4.4830322265625,2.8187323098510504,-2.5952488408967853,-5.402416677421331
1765549734508025000,4.493025146484375,2.5936586490958926,-1.8870038331687449,-4.617496426291764
1765549734518018000,4.50301806640625,2.264996019050479,-0.9564190466288477,-3.845461667959392
1765549734528011000,4.513010986328125,1.932413000690937,-0.15653224037801847,-3.073830229730904
1765549734538005000,4.5230048828125,1.7483605016320942,0.27955398695077743,-2.300798569315672
1765549734547998200,4.532998291015625,1.5537708264678716,0.5962073225116357,-1.4995771717265247
1765549734557991000,4.542990966796875,1.4199591528713702,0.9681875911600887,-0.7749015459403396
1765549734567983600,4.552983642578125,1.3429489784270525,1.439363233782351,-0.1237701720535755
1765549734577976600,4.5629765625,1.4795552511781453,1.763989447918534,0.31540859619677064
1765549734587970800,4.572970703125,1.6436422360509633,1.8040303664058446,0.2735243879303336
1765549734597963800,4.5829638671875,1.6434885067939757,1.8935187680207193,0.0804699595093727
1765549734607956700,4.592956787109375,1.4512339965790508,2.17980078458488,0.08354074525684117
1765549734617949700,4.60294970703125,1.03713004835248,2.222297864052653,0.43061464578360314
1765549734627943700,4.612943603515625,0.6033288814872503,1.9972057908579706,1.202650865420699
1765549734637936600,4.6229365234375,0.17602759803533552,1.662393406011164,2.051568080164492
1765549734647929600,4.6329296875,-0.18829495893418788,1.3144186111219227,2.6339322072952984
1765549734657922800,4.6429228515625,-0.5273877975791692,1.1233062566794454,3.0597336075782775
1765549734667915800,4.652915771484375,-0.7935854958832264,1.0526257236480712,3.202751793198287
1765549734677909500,4.662909423828125,-1.0133429300516843,0.9409453639693558,2.881169476802647
1765549734687902700,4.67290283203125,-1.0980606101334094,0.8895576334942131,2.2231758159309623
1765549734697895700,4.682895751953125,-1.1794886010199785,0.9877505889598279,1.576278718613088
1765549734707888600,4.692888671875,-1.496195420333743,1.270221888129413,1.1426251435250043
1765549734717882600,4.702882568359375,-1.7599457254856823,1.384574828018248,1.1484826373815535
1765549734727875600,4.71287548828125,-1.9810218410372733,1.1428854018963872,1.3617045323014259
1765549734737868800,4.722868896484375,-2.1765414905279874,0.8807718311008066,1.6376538092911241
1765549734747861500,4.732861572265625,-2.115149740976095,0.7812614363610744,1.910717009450495
1765549734757855700,4.742855712890625,-1.8877718949317932,0.768190357863903,2.013449361911416
1765549734767848700,4.7528486328125,-1.5901614057540892,0.7737887623928487,1.8481150073260069
1765549734777842000,4.762842041015625,-1.3289718910008668,0.7307290806062519,1.3493296193748712
1765549734787834600,4.772834716796875,-0.8465829265773296,0.8999616116739809,0.8610007435083389
1765549734797827800,4.782827880859375,-0.5067033214688301,1.2157226745702325,0.6046095689475536
1765549734807821800,4.79282177734375,-0.5301099160194397,1.419485690140724,0.5268178887367249
1765549734817814500,4.802814453125,-0.6554343317776918,1.1808739178985357,0.3246346897035837
1765549734827807700,4.812807861328125,-0.6954314111232757,0.9034630439236759,0.12297814489305019
1765549734837800700,4.82280078125,-0.8153168506979942,0.5266368330813944,-0.19205635729432105
1765549734847794700,4.832794677734375,-0.7890992903798818,0.09132679602317512,-0.5333391071990132
1765549734857787600,4.84278759765625,-0.7466478036195039,-0.0036433249384164807,-0.6633505117297173
1765549734867780600,4.852780517578125,-0.6345294909149408,0.3747586838532239,-0.3595578267857432
1765549734877773800,4.86277392578125,-0.6415817475140094,0.9243464766722171,0.1229950960278511
1765549734887766500,4.8727666015625,-0.3427250576674938,1.2445659072168171,0.44921179422587154
1765549734897760500,4.882760498046875,0.01906125882267952,1.2993253791473804,0.6697761608630418
1765549734907753700,4.892753662109375,0.3110305272430181,1.2105806355066597,0.7654463198527693
1765549734917746700,4.90274658203125,0.3874918356329202,1.2278664090894162,0.815166044050455
1765549734927739600,4.91273974609375,-0.06867021612226963,1.2333420640215278,0.5345543282076716
1765549734937733600,4.922733642578125,-0.6715601216703653,0.8971589753434062,-0.09621317982524633
1765549734947726800,4.932726806640625,-0.8123673532426356,0.683481372545287,-0.48433892944753165
1765549734957719800,4.9427197265625,-0.6758849991321564,0.9914345381695776,-0.4498407397791743
1765549734967712800,4.952712646484375,-0.26488369309604165,1.1673119140792638,-0.2243555756136775
1765549734977706800,4.962706787109375,0.11398176848888397,1.2706110335774718,-0.16364537858515976
1765549734987699700,4.97269970703125,0.3219605020582676,1.6129818709798156,-0.00639963790923357
1765549734997693000,4.98269287109375,0.4322311410695314,1.9527615228451787,0.2040165519401431
1765549735007685600,4.992685546875,0.573651536104083,2.2838429044701156,0.3561640926942229
1765549735017678800,5.002678955078125,0.6324006621927023,2.463405837024748,0.35402708066552874
1765549735027672800,5.0126728515625,0.4181365647435188,2.1902529127553105,-0.013625497509539126
1765549735037665500,5.02266552734375,0.23319968406558036,1.6280170891568064,-0.5256453378260135
1765549735047658800,5.03265869140625,0.18581190994679928,1.1204346467658877,-0.9228373142182826
1765549735057651700,5.042651611328125,-0.001995557731389999,0.9254383635621517,-1.3058426520869135
1765549735067645700,5.052645751953125,-0.08409457974731922,1.0375136408425867,-1.3672504759907722
1765549735077638700,5.062638671875,-0.28738837037086484,1.0434737182907758,-1.0195903000086546
1765549735087631600,5.072631591796875,-0.3767372173845768,0.8746327438239008,-0.5811117889821529
1765549735097624800,5.082624755859375,-0.5639531489104033,0.6222965437423438,-0.265060218706727
1765549735107617500,5.092617431640625,-0.46994858504533765,0.46875016904100775,0.005204875166714191
1765549735117611500,5.102611572265625,-0.31374738498628135,0.472752463484928,0.2828217931076884
1765549735127604700,5.112604736328125,-0.326081381380558,0.34295484783537683,0.2504363578096032
1765549735137597700,5.12259765625,-0.7682020483016967,0.11762808910198509,-0.06538520310223102
1765549735147590700,5.132590576171875,-1.5040128160864115,0.010843903966993093,-0.12784195153713226
1765549735157584600,5.142584716796875,-2.4188953719079493,0.011850523726269602,0.06714227590262889
1765549735167577900,5.152577880859375,-2.8002251777797937,0.0043877866301685565,0.11879998242557048
1765549735177570800,5.16257080078125,-2.832274512991309,0.13188983868844806,0.10260258860141039
1765549735187563800,5.172563720703125,-2.6757120784044264,0.4187461480092257,-0.01223024375885725
1765549735197557800,5.182557861328125,-2.5136767653644085,0.45214762848205864,-0.5128863940179348
1765549735207550700,5.19255078125,-2.173498469570279,0.5249724070005118,-1.3308724639251828
1765549735217543700,5.202543701171875,-2.0980711804032324,0.9995474097374826,-1.79141287689507
1765549735227536600,5.21253662109375,-2.028693692794442,1.3981161543756722,-1.8931509576216339
1765549735237529900,5.22252978515625,-1.4076847777098416,1.739246636328101,-2.0549667826920746
1765549735247523800,5.23252392578125,-0.42020811032056804,2.039792886696756,-2.2201059069663285
1765549735257516500,5.2425166015625,0.540989621952176,2.05162711687535,-2.38760913002342
1765549735267509800,5.252509765625,1.4066560191839932,1.9349973180957138,-2.509115448798239
1765549735277502700,5.262502685546875,2.2341513834536073,1.8206598680369555,-2.5501468396276232
1765549735287496700,5.27249658203125,3.0153514450162646,1.7418310998633504,-2.7183026813745497
1765549735297489700,5.28248974609375,3.6289269952297207,2.0895663869082926,-2.854801694358885
1765549735307482600,5.292482666015625,3.7919776227921247,2.5728964315742253,-3.0525963030442593
1765549735317475800,5.302475830078125,3.9674335584193465,2.920219338425994,-3.529642737396061
1765549735327469800,5.3124697265625,4.1533173645585775,2.6790423918709156,-4.512800664803385
1765549735337462800,5.322462890625,4.328620155450701,2.164195511434972,-5.775660207471251
1765549735347455700,5.332455810546875,4.220258564931154,2.0527201728090643,-6.814900964367389
1765549735357448700,5.34244873046875,4.262426558575034,2.4403575543925164,-7.449148715731501
1765549735367441700,5.352441650390625,4.606545700949431,2.8062206188023087,-7.997099993389845
1765549735377435600,5.362435546875,5.447665101423859,3.324701764087379,-8.696406784641741
1765549735387428900,5.372428955078125,7.18413292068839,4.310247755675017,-9.456239064005016
1765549735397421600,5.382421630859375,9.305612449207901,4.791781564573943,-10.52536876320839
1765549735407414800,5.392414794921875,11.355640021932125,4.489446384961902,-11.888875961017607
1765549735417408800,5.40240869140625,12.69940557743907,4.15830187497288,-13.236751874452828
1765549735427401700,5.412401611328125,13.7315508231163,4.177263765074312,-13.883807084941862
1765549735437394700,5.422394775390625,14.095674058121443,4.407947666926682,-14.058927505004405
1765549735447387600,5.4323876953125,13.824576312816141,5.06699638980925,-14.007290841269493
1765549735457381600,5.442381591796875,13.089121518862246,5.568101745140552,-13.89067521714568
1765549735467374800,5.452374755859375,12.478727521294354,5.722351226609945,-13.760938245642185
1765549735477367600,5.462367431640625,11.799935110282897,5.727586204653978,-14.11456931272745
1765549735487360800,5.47236083984375,10.571859296226501,5.4244987453699105,-15.058341862946747
1765549735497353700,5.482353759765625,9.607501054096222,4.93383587359786,-15.887155324077606
1765549735507347700,5.49234765625,8.601673321980238,5.245949519902467,-16.56082732333541
1765549735517340700,5.502340576171875,7.952754071184993,5.9932689391732215,-17.033440159153937
1765549735527333600,5.512333740234375,7.907557085108756,6.355628087115288,-17.34432864757776
1765549735537326800,5.522326904296875,7.462801393508911,7.15994482037127,-17.89555149425268
1765549735547320600,5.532320556640625,6.612979046618938,8.317094163811205,-18.616586133188008
1765549735557313800,5.542313720703125,5.213916551303863,9.72651087988019,-19.692713143932817
1765549735567307300,5.552307373046875,3.9933962671935554,11.028388427728414,-21.06795052702427
1765549735577300200,5.56230029296875,3.172085729038715,12.143086868929862,-22.927410519707202
1765549735587294200,5.572294189453125,2.877166963163018,12.908580242794752,-24.874191068446635
1765549735597287200,5.582287109375,1.8991379230767487,13.462835589033364,-27.014008802211283
1765549735607280000,5.592280029296875,0.5602735836148262,14.544655842983722,-28.389292947053907
1765549735617273000,5.602273193359375,-0.10911562375724315,16.093499734443427,-29.17193970029354
1765549735627267000,5.61226708984375,-0.1545312210202217,17.98094780424833,-29.714549032402036
1765549735637260300,5.62226025390625,-0.611350859901309,19.86641902102232,-30.88647567373514
1765549735647253200,5.632253173828125,-1.7507476890295743,20.595717630434034,-32.8696064697504
1765549735657246200,5.64224609375,-4.09116982820332,20.945575024199485,-35.70161268719435
1765549735667239200,5.6522392578125,-7.8170415324032305,21.641200496590137,-38.710649542236325
1765549735677233200,5.662233154296875,-12.473388498353957,23.05684470887184,-41.54475302422046
1765549735687226400,5.672226318359375,-17.220000841641426,24.162545020103455,-44.11397924284935
1765549735697219000,5.682218994140625,-21.61420727572441,25.281135208046436,-45.712529706764215
1765549735707212300,5.69221240234375,-25.27145084937811,26.31325824189186,-46.73770628247261
1765549735717206300,5.702206298828125,-28.14541872423887,27.49072848882675,-46.91924942905903
1765549735727199200,5.71219921875,-30.17574147953987,29.266131895685195,-45.93389048447609
1765549735737192200,5.722192138671875,-31.610672576093673,31.14862205082178,-44.858272007775305
1765549735747185200,5.73218505859375,-32.95500979400873,32.08063752775192,-44.19033650634289
1765549735757179100,5.74217919921875,-34.58811953012943,32.179641507339475,-43.70853615546226
1765549735767172000,5.752172119140625,-36.497312983274455,32.492606217515466,-43.916214444780344
1765549735777165000,5.7621650390625,-38.61782278997898,32.79695507503748,-44.88270969893932
1765549735787158300,5.772158203125,-40.78646914334297,33.30263197606802,-45.771842311954494
1765549735797152300,5.78215234375,-42.25019612627029,34.64012327361107,-46.17707964763641
1765549735807145200,5.792145263671875,-42.88855014390945,36.31180210210085,-45.44229822289943
1765549735817138200,5.80213818359375,-43.14115712375641,37.743798898768425,-43.64337833137512
1765549735827131400,5.81213134765625,-42.641334793972966,38.519501531958575,-41.50230270650387
1765549735837125400,5.82212548828125,-42.48077364513874,38.795409892416,-39.18270240608454
1765549735847118000,5.8321181640625,-41.738622568416595,38.12635210895538,-36.79242639493942
1765549735857111300,5.842111328125,-40.17845882604122,37.03881406188011,-34.485379286623
1765549735867104300,5.852104248046875,-38.55517139575481,35.884320201385016,-32.39412830762863
1765549735877098200,5.86209814453125,-36.81873455615043,33.99662780143022,-30.545989334905144
1765549735887091200,5.87209130859375,-35.546955209445954,32.41629337768555,-29.00625112544298
1765549735897084200,5.882084228515625,-33.96718894097805,30.868025824809074,-27.528547055089472
1765549735907077400,5.892077392578125,-32.414881172800065,28.859342069864272,-26.24430803978443
1765549735917070000,5.902070068359375,-30.71989394943714,27.250071474492547,-25.260791508197784
1765549735927064000,5.91206396484375,-28.825533323764798,25.80075412518978,-24.891930138754844
1765549735937057300,5.922057373046875,-27.073291012263297,24.37098318787813,-25.178647477996346
1765549735947050000,5.932050048828125,-25.682079814970493,23.204312567377087,-25.607099685049054
1765549735957043200,5.942043212890625,-24.318649774050712,22.323851921117303,-25.727639789140223
1765549735967037200,5.952037109375,-23.028792334342,21.382100647592544,-25.56416070703268
1765549735977030400,5.962030517578125,-22.07410208426714,20.25141085653305,-25.32183663626909
1765549735987023000,5.972023193359375,-21.545848609769344,19.04630090752244,-25.18796709500551
1765549735997016000,5.98201611328125,-21.111237880086897,18.509750729322434,-24.985682773685454
1765549736007010300,5.99201025390625,-20.930054798984525,18.415334077525138,-24.630690939640996
1765549736017003300,6.002003173828125,-20.42467249698639,18.462974949622154,-23.444604840052126
1765549736026996200,6.011996337890625,-19.307856917500494,18.960973571109772,-21.459612926340103
1765549736036989200,6.0219892578125,-18.725079241132736,19.001102167880536,-19.35614894698262
1765549736046982400,6.031982421875,-19.476743996131418,18.36779257414937,-17.22310348383188
1765549736056976400,6.041976318359375,-20.749774219679832,17.905807515329123,-14.498955583560466
1765549736066969000,6.051968994140625,-21.29722806921005,17.8177457855165,-10.567407577514647
1765549736076962300,6.06196240234375,-21.721347800016403,18.223894975346326,-6.0669251270145175
1765549736086955300,6.071955322265625,-21.53956850658655,17.822474567604065,-2.3511808490753174
1765549736096949000,6.081948974609375,-20.557616155576703,16.745765373057125,-0.04150689938664436
1765549736106942200,6.091942138671875,-20.27710877689123,15.529648876863718,1.386525669825077
1765549736116935200,6.10193505859375,-20.57768863726854,14.396844285607337,3.004892010322213
1765549736126928100,6.11192822265625,-20.701609615969655,12.638757924252747,4.1431770788162945
1765549736136922000,6.121922119140625,-19.153747721284628,9.98608185352087,4.161416499862074
1765549736146915000,6.1319150390625,-25.926386583983895,11.022658944165705,8.59219471501708
1765549736156908300,6.141908203125,-30.66030544991493,10.03753731546998,12.704564567637442
1765549736166901000,6.15190087890625,-17.654466609895227,9.289460940352082,12.092577163398266
1765549736176895200,6.161895263671875,-15.340653076183795,6.962690894433855,6.127457044866681
1765549736186888200,6.17188818359375,-10.212765287560224,8.664885272696614,5.284876339668036
1765549736196881400,6.18188134765625,-6.799414641422033,7.9289833194971076,5.767777345266938
1765549736206874000,6.1918740234375,-5.653403362590074,7.101126136177778,5.334450225654244
1765549736216867300,6.201867431640625,-5.995121289041638,6.6708163185596465,4.784634323167801
1765549736226861300,6.211861328125,-5.171832144290208,6.282547653335333,4.185313508278131
1765549736236854300,6.221854248046875,-3.5447768859028814,6.448163747471571,3.1119886954724785
1765549736246847200,6.23184716796875,-2.167239409175515,6.952308032107353,1.9127923544198273
1765549736256840200,6.241840087890625,-1.0145049595683813,7.144367896533012,1.0800152503550051
1765549736266834200,6.251834228515625,-0.13622808708846568,6.7316264688313,0.5360246930211782
1765549736276827100,6.2618271484375,0.858947025848925,6.262215643924474,0.4502741627603769
1765549736286820000,6.271820068359375,1.0131912466213107,5.335305965700745,0.5464513944894075
1765549736296813300,6.281813232421875,-0.03321194925010204,4.398171246060729,0.773509507060051
1765549736306807300,6.291807373046875,-1.0083780011206864,3.889203194530308,1.0943570794403552
1765549736316800000,6.301800048828125,-1.6182345308110118,3.995170583389699,1.7509546097785234
1765549736326793200,6.311793212890625,-1.7981553368926046,3.9258629461467263,2.1220757408469915
1765549736336786200,6.3217861328125,-1.100032786989212,3.545042551101744,1.805911357846856
1765549736346779100,6.331779052734375,-1.2377508203744887,3.461317096927762,1.489388078406453
1765549736356773000,6.341773193359375,-1.307884094786644,3.481308037815988,1.068944990286231
1765549736366766300,6.351766357421875,-1.5278291604816914,3.3158068022310734,0.548606526696682
1765549736376759300,6.36175927734375,-2.065254660211503,2.974559415900707,-0.01609188762307167
1765549736386752300,6.371752197265625,-2.7761756091505285,2.5435540172338484,-0.38467327108085153
1765549736396746200,6.381746337890625,-3.891014920127392,2.3524539377510547,-0.3810638484120369
1765549736406739200,6.3917392578125,-6.503644227153062,2.2545690253213047,-0.22305589119195937
1765549736416732400,6.401732421875,-4.825485681255161,1.616233127860725,-0.8823416377007961
1765549736426725000,6.41172509765625,-4.995018364313244,0.8234650858402252,-1.2216226923942566
1765549736436719000,6.421718994140625,-4.79552688858211,0.4429197083443403,-1.304023327705264
1765549736446712300,6.43171240234375,-4.590265597277879,1.0875573362976312,-1.1101116979330778
1765549736456705000,6.441705078125,-4.341121325105428,1.9821604896783827,-0.8742331500470638
1765549736466698200,6.4516982421875,-4.558875018236041,2.4089549926519394,-0.9067664693832397
1765549736476691200,6.461691162109375,-4.537636707635223,2.586759537231922,-1.3169751637369393
1765549736486685200,6.471685302734375,-4.382306152930855,2.8365608120083805,-1.9741595540523529
1765549736496678100,6.48167822265625,-4.365848646865785,2.9788106436043975,-2.795787487593293
1765549736506671000,6.491671142578125,-4.682541729915142,2.7126275583475827,-3.626927345845103
1765549736516664300,6.501664306640625,-4.649164068709314,1.9161790742486715,-4.832419572171569
1765549736526658300,6.511658203125,-4.413904237243533,1.6284756465792656,-5.768748236125707
1765549736536651000,6.521651123046875,-4.703562890633941,1.9092063126266001,-5.464383011990785
1765549736546644200,6.531644287109375,-4.97973370141983,2.412666706651449,-4.558546516934037
1765549736556637200,6.54163720703125,-4.932978379985689,2.636948924767971,-4.273220924311876
1765549736566631200,6.551631103515625,-4.69325075545609,2.493649291858077,-4.458885534742475
1765549736576624000,6.5616240234375,-4.711430847530067,2.57212252459228,-4.653153722867369
1765549736586617300,6.571617431640625,-4.85330570833385,2.5757196723014113,-4.980134098914266
1765549736596610000,6.581610107421875,-5.534100691339373,2.545951141503453,-5.36079228913486
1765549736606603300,6.591603271484375,-6.408461851680278,2.7010405809283253,-5.8363587140619755
1765549736616597200,6.60159716796875,-6.594325784075259,2.6996675390094516,-6.448008264648914
1765549736626590000,6.61158984375,-6.461171697604656,2.5681892767965793,-6.86090926682651
1765549736636583200,6.621583251953125,-6.434556077879667,2.5003327151447534,-7.322855747202039
1765549736646576000,6.631576171875,-6.82437314158976,2.445440264484286,-8.288938913428783
1765549736656570000,6.641570068359375,-7.118548395621776,2.413401450666785,-9.22773133714795
1765549736666563000,6.65156298828125,-7.142890809717774,2.373414308193326,-9.728024791574478
1765549736676556000,6.66155615234375,-7.2799325512766835,2.39257844286859,-9.699685416796802
1765549736686549200,6.67154931640625,-6.8357847624421115,2.643980138579011,-9.139031309431791
1765549736696543200,6.681543212890625,-5.768664064973592,3.264109348219633,-8.681427826696634
1765549736706536000,6.691535888671875,-4.387320473961532,3.721449796104431,-8.75225025241673
1765549736716529200,6.701529052734375,-3.5058708166643977,3.4731565878033637,-9.444003267288208
1765549736726522000,6.711522216796875,-3.0726413122072813,3.1312299870371816,-10.40201593978405
1765549736736515000,6.72151513671875,-3.2806697301372885,2.925605123117566,-11.259503706735371
1765549736746509000,6.731509033203125,-3.5705709601119158,2.5220851127475497,-11.275635341846943
1765549736756502300,6.741502197265625,-4.225536505334079,2.813395040476322,-9.962605116343498
1765549736766495200,6.7514951171875,-4.924476509100199,3.608075345858931,-8.633060978412628
1765549736776488200,6.76148828125,-5.474927786880731,4.142856760820746,-7.537762818729877
1765549736786482200,6.771482177734375,-5.49389669124484,4.898874450331926,-6.851821705007553
1765549736796475100,6.78147509765625,-4.56611256827414,5.720134719604253,-7.251061261579394
1765549736806468000,6.791468017578125,-2.8251117817550897,5.783512090015411,-8.660991772389412
1765549736816461000,6.8014609375,-1.6738509118318556,5.495715723365545,-10.272996761161089
1765549736826454300,6.811454345703125,-1.1778759051263332,4.855768883576989,-11.903824523824452
1765549736836448300,6.8214482421875,-0.9907818464145064,3.8510464823544024,-13.205318625313042
1765549736846441000,6.83144091796875,-1.1861257009468973,2.850292984762788,-13.795739509910344
1765549736856434200,6.84143408203125,-1.9208420976236462,2.3692256243318317,-13.405555950975417
1765549736866427100,6.85142724609375,-2.6144448320150375,2.7439538399815557,-11.836118184298277
1765549736876421000,6.861421142578125,-3.0144805074006316,3.628210955914855,-9.72005834273994
1765549736886414000,6.8714140625,-2.7014748806923627,4.271093264633417,-7.933304105305671
1765549736896407000,6.881406982421875,-1.925771370719373,4.480523366054892,-6.84764821871519
1765549736906400300,6.891400146484375,-0.9791340787187218,4.516162250190973,-7.331172909170388
1765549736916394200,6.901394287109375,-0.6413029305726289,4.442611276289821,-8.925572683146596
1765549736926387000,6.911386962890625,-0.2731079160839319,4.181949584802985,-10.05372740277052
1765549736936380200,6.921380126953125,0.29896687222272156,4.185646101233363,-10.269689536309242
1765549736946373000,6.931373046875,0.5652317905440927,4.549864613306522,-9.833507611787319
1765549736956366000,6.941365966796875,0.7296709498554468,5.054391759780049,-9.324604149925708
1765549736966360000,6.951360107421875,1.1849097492858767,5.39682397198081,-8.823111256581544
1765549736976353300,6.961353271484375,1.587895798909664,5.654002497527003,-8.160748586845397
1765549736986346000,6.971345947265625,1.883342680312693,5.859648988756537,-7.373222244870663
1765549736996339200,6.981339111328125,2.1102233904898164,5.5046594927996395,-7.261980715000629
1765549737006333200,6.991333251953125,2.284783838582039,4.425851280146837,-7.818204730963706
1765549737016326100,7.001326171875,2.1756287595972417,2.867187420940399,-8.475550449320673
1765549737026319000,7.011319091796875,1.4197317738562822,1.3471937763899564,-9.376066626137494
1765549737036312000,7.02131201171875,0.3739885031983256,0.33724984112679957,-10.427014771962165
1765549737046306000,7.03130615234375,-0.8265069377541542,-0.23814824638366697,-11.254698936802148
1765549737056299300,7.04129931640625,-1.8382237279087303,-0.30380759025216103,-11.564393831527232
1765549737066292000,7.0512919921875,-2.410978899694979,0.007532733592391014,-11.206713196790218
1765549737076285200,7.06128515625,-2.0343927812188864,0.18826923997104167,-10.226718994110822
1765549737086278100,7.071278076171875,-0.6512181753873825,-0.2193909389436245,-9.206405056002735
1765549737096272100,7.081272216796875,0.5194780473679304,-1.3004402085214852,-8.81621915898025
1765549737106265000,7.09126513671875,1.202858370691538,-2.9385756638497114,-9.196261847651003
1765549737116258000,7.101258056640625,1.5660896252930163,-4.783578092113137,-10.20797922232747
1765549737126251300,7.111251220703125,1.2751479463547468,-6.81336893249452,-11.678840879440306
1765549737136245000,7.121244873046875,0.4435989227801561,-8.57152835908532,-12.881903832793235
1765549737146238200,7.13123828125,-0.46853170398473737,-9.836460616374016,-13.4113321962893
1765549737156231200,7.141231201171875,-1.1541595139741896,-10.494019685220717,-13.090727785015105
1765549737166224100,7.15122412109375,-1.132137067258358,-10.793715748500823,-11.729589069902897
1765549737176217000,7.161217041015625,-0.4366846133470535,-10.56790792825222,-9.737392339378594
1765549737186211000,7.171211181640625,0.5425473727881908,-10.188218875324726,-7.601181690195203
1765549737196204300,7.181204345703125,1.7223410942345856,-10.445231981176137,-6.033579322251677
1765549737206197000,7.191197021484375,3.0597365301877257,-10.86351000021696,-5.700680077549815
1765549737216190200,7.201190185546875,4.219169016128778,-11.291275978571177,-6.240331144374609
1765549737226184200,7.21118408203125,5.292132594406604,-11.616087778407335,-6.690141781276464
1765549737236177200,7.22117724609375,6.077521924352646,-11.701821942055224,-6.843205852353573
1765549737246170000,7.231170166015625,6.543768732270598,-11.73372397775054,-7.038536701273918
1765549737256163000,7.2411630859375,6.723078420716524,-11.893007361733913,-7.093696278437972
1765549737266156300,7.25115625,6.608586949139833,-11.903843228524922,-6.765584852534532
1765549737276150300,7.261150390625,6.105271516543627,-11.8580050219357,-6.233593360552192
1765549737286143000,7.27114306640625,5.327672694343328,-11.531468882524967,-5.48384525282979
1765549737296136200,7.28113623046875,4.591092111229896,-10.84215624654293,-4.461200241425633
1765549737306129200,7.291129150390625,3.8435657712101934,-9.962551340329647,-3.283663358995318
1765549737316123100,7.301123046875,3.02449862806797,-8.965531768569349,-2.129535993725061
1765549737326116000,7.3111162109375,2.2572569492310284,-7.960528796839713,-1.0646130985617637
1765549737336109000,7.321109130859375,1.3836772946566342,-6.974933120891452,-0.2407178046107292
1765549737346102300,7.331102294921875,0.4888865097492933,-5.96755231411457,0.3989093017041683
1765549737356095000,7.341094970703125,-0.27203999459147454,-4.997317873427272,0.593060585451126
1765549737366089200,7.351089111328125,-0.8067313931822776,-4.16640364062488,0.3646306000053882
1765549737376082200,7.361082275390625,-1.1452654289007187,-3.5273037730544803,-0.1106950019031763
1765549737386075100,7.3710751953125,-1.1242770014077423,-3.103664226980507,-0.8299468490749597
1765549737396068000,7.381068115234375,-1.01024584081918,-2.76012551484257,-1.6316045922547577
1765549737406062000,7.39106201171875,-0.808875419473648,-2.3786776355490087,-2.3047300635457035
1765549737416055300,7.40105517578125,-0.7332189977258443,-1.9073712061539292,-2.6920477116554973
1765549737426048000,7.411048095703125,-0.8837146796196699,-1.256665364202857,-2.8247032009541986
1765549737436041200,7.421041259765625,-1.0555629461437464,-0.529404398098588,-2.7555618601888416
1765549737446034200,7.4310341796875,-1.0991232709288596,0.23370646454393862,-2.4541648382097483
1765549737456028200,7.441028076171875,-1.040037460231781,0.8842337350577115,-2.0505337686806917
1765549737466021000,7.451021240234375,-0.9106807202175259,1.4178735787689685,-1.6393039145857096
1765549737476014000,7.46101416015625,-0.720091805127263,1.9813240388542412,-1.1982821488171815
1765549737486007300,7.47100732421875,-0.5662497354149818,2.4655238520920277,-0.7699146974384784
1765549737496001000,7.4810009765625,-0.37821547324359417,2.8860774148494004,-0.29209961680173874
1765549737505994000,7.490993896484375,-3.2546202198624608,4.116130666458607,2.0795476817190646
1765549737515987200,7.5009873046875,-2.201846612176299,4.158817715540528,4.665737894630432
1765549737525980200,7.510980224609375,-0.9074187958121299,3.818236099642515,2.5578455774366855
1765549737535973000,7.52097314453125,-1.23221861294955,5.12872891562283,2.495128132238984
1765549737545967000,7.530967041015625,-1.556157429343462,3.93273809261322,2.9664158569335934
1765549737555960000,7.5409599609375,-0.9614794718235731,3.532885957100987,2.7188807735234497
1765549737565952800,7.550952880859375,0.20544190856814384,3.9080946497440334,2.441408232489228
1765549737575945700,7.56094580078125,-0.22728782967329023,3.346443348035216,1.8233242649406194
1765549737585940000,7.57093994140625,0.25965572931468484,3.1601994764119383,1.386924898275733
1765549737595933000,7.580932861328125,0.8658049289196729,2.9911008008569477,0.8864999264240264
1765549737605926000,7.59092578125,1.0302575322344898,2.6268203294634818,0.2909989620834589
1765549737615918800,7.6009189453125,1.2665431996166705,2.3818407757550477,-0.09745265849232673
1765549737625912000,7.610912109375,1.0787354396775364,2.173103332772851,-0.24533494301736353
1765549737635906000,7.620906005859375,0.9092398737594485,1.992576085230708,-0.3626449791461229
1765549737645898800,7.630898681640625,0.503909599097073,1.9197616089105605,-0.24369243650734423
1765549737655892000,7.64089208984375,0.10226911886334418,1.8195342250078916,-0.09002864597141742
1765549737665885000,7.650885009765625,-0.032743454955518246,1.7801608305186032,0.1993260560363531
1765549737675878000,7.6608779296875,-0.020033903247117995,1.8430927952498197,0.6489753648966551
1765549737685871900,7.670871826171875,0.18462562277168035,1.7894599892616272,0.8860013292521238
1765549737695864800,7.68086474609375,0.4378633017376065,1.6157079349428414,0.9638660746991634
1765549737705858000,7.690858154296875,0.3582482054919004,1.4245347902238368,0.9739175131142139
1765549737715850800,7.700850830078125,0.06778641902506351,1.2767489518105983,1.0541197615981102
1765549737725844700,7.7108447265625,-0.053043900184333324,1.1468617581814526,1.067301899254322
1765549737735838000,7.720837890625,-0.12593611791580914,1.0485574512958526,0.9415098659843206
1765549737745830700,7.73083056640625,0.09723492408841848,1.1249842728942632,0.9080880733758211
1765549737755823900,7.740823974609375,0.0729500853985548,1.1853367425262928,0.8515630530774593
1765549737765816800,7.75081689453125,-0.0744791946619749,1.223403146070242,0.8785714715123176
1765549737775811000,7.76081103515625,-0.2628720610126853,1.2752946613490581,1.0975029762506485
1765549737785803800,7.7708037109375,-0.46813685944825406,1.2980097665041683,1.2928338251709937
1765549737795797000,7.780796875,-0.4687012153327465,1.3295149118363856,1.3744991319447755
1765549737805790000,7.7907900390625,-0.4344546623378992,1.3894360043138265,1.4593173497915266
1765549737815784000,7.800783935546875,-0.6169879890054464,1.4467676648199557,1.6363392195612192
1765549737825777000,7.81077685546875,-0.6073878014892339,1.7271394344270228,1.8924761270999908
1765549737835769900,7.820769775390625,-0.7753302927464246,1.866689943936467,2.0860382127821446
1765549737845763000,7.83076318359375,-0.8947767563819885,2.209177685716748,2.398705401316285
1765549737855755800,7.840755859375,-1.2291945889532565,2.658295664179325,2.5676930177122355
1765549737865749800,7.850749755859375,-1.228514789995551,2.9136919824838636,2.2955483937025067
1765549737875743000,7.860742919921875,-1.137757829749584,2.904804911673069,1.8957903662145137
1765549737885736000,7.87073583984375,-1.5943500896155833,3.0010400110691786,1.689124468809366
1765549737895729000,7.88072900390625,-1.8152686765179038,2.974300472703576,1.7279209401935338
1765549737905721900,7.890721923828125,-2.1935990083128214,2.9702672716647385,1.7198977927356958
1765549737915715800,7.9007158203125,-2.5687951337352395,2.7211989873379467,1.6683780333787201
1765549737925708800,7.910708740234375,-2.961612256044149,2.404861585858464,1.7339432692229746
1765549737935701800,7.92070166015625,-3.2251404428780077,2.452597150501609,1.8921821125894784
1765549737945695000,7.930695068359375,-3.4737039925530553,2.84394741512835,2.0706763929992915
1765549737955689000,7.94068896484375,-3.6819776174157854,3.3088211811274286,2.0687328577160833
1765549737965681700,7.950681640625,-3.7952708191186186,3.7540789770305154,1.892732732209563
1765549737975675000,7.9606748046875,-4.062856756910682,3.985619787973165,1.6096061109364033
1765549737985667800,7.970667724609375,-4.661158750146627,3.8858343026190996,1.384690271091461
1765549737995660800,7.980660888671875,-5.482518972662091,4.064097112360597,1.181363747242093
1765549738005654800,7.99065478515625,-5.4901043132245535,4.129330924293399,0.9779045369237661
1765549738015648000,8.00064794921875,-4.6935973769366734,4.213057255250216,0.8342407468765973
1765549738025641000,8.010640869140625,-4.410482446101308,4.152232491931319,0.4842857379555702
1765549738035634000,8.020634033203125,-4.458273248063027,3.8481794024854894,0.08388473638892173
1765549738045628000,8.0306279296875,-4.543754313732683,3.6126311094671486,-0.0022194296151399613
1765549738055620900,8.040620849609375,-4.6776972124934195,3.6795623729676006,-0.03623392741978168
1765549738065614000,8.050614013671876,-4.707445869547128,3.8229590365111825,-0.17930735035836695
1765549738075606800,8.060606689453126,-4.656244674620032,3.8557700037449596,-0.33624446347653864
1765549738085600000,8.07060009765625,-4.525794586411118,3.849777485331893,-0.4545400035113096
1765549738095594000,8.080593994140624,-4.288382837608457,3.9303859765291214,-0.5050000246822833
1765549738105586700,8.090586669921874,-3.922911695125699,4.031337583053112,-0.5697878464132548
1765549738115580000,8.100579833984375,-3.6395799066692587,4.041060520166158,-0.9129168087065219
1765549738125572900,8.11057275390625,-3.733333710643649,3.898319690182805,-1.4528443543851375
1765549738135565800,8.12056591796875,-3.8721751951009034,3.776529586030543,-1.8826579129189251
1765549738145559800,8.130559814453125,-3.942322498038411,3.7739389850154517,-2.203625896808505
1765549738155552800,8.140552734375,-4.0218209821671245,3.8126542078569527,-2.2389608295619485
1765549738165546000,8.1505458984375,-4.097572680982947,4.087135750381648,-1.9090017299652098
1765549738175538700,8.16053857421875,-4.252413114082813,4.465049610330164,-1.5229688609689473
1765549738185533000,8.170532958984374,-4.2725621681421995,4.695312364161015,-1.2943044822454453
1765549738195526000,8.18052587890625,-4.1333080112308265,4.989718504339456,-1.2315800227850675
1765549738205518800,8.190518798828125,-3.8761271475970744,5.417974312037229,-1.3551368443489074
1765549738215511800,8.20051171875,-3.8423312609791753,5.702881386986374,-1.8399118271261452
1765549738225504800,8.2105048828125,-3.6571173169255253,5.8100599052011965,-2.500689273497462
1765549738235499000,8.2204990234375,-3.5379976010262966,5.997081190937757,-2.9452222622573374
1765549738245492000,8.230491943359375,-3.5884301496684547,6.242428408914804,-3.2495787185639142
1765549738255485000,8.24048486328125,-3.76108330283463,6.2401172093629835,-3.7067636836260554
1765549738265478000,8.250477783203126,-3.7712341099709272,6.282797244182229,-4.241897565287351
1765549738275472000,8.260471923828124,-3.475016536456346,6.401707116723061,-4.638613156339526
1765549738285464800,8.27046484375,-3.2186171785891053,6.368751772582531,-4.839644262728095
1765549738295457800,8.280457763671874,-2.8988667537957427,6.184145731294155,-5.011574946838617
1765549738305451000,8.290450927734375,-2.4029648123264313,6.13008797789216,-5.398727759775519
1765549738315443700,8.300443603515625,-2.118092224168777,6.172390996092558,-5.782042601984739
1765549738325437700,8.310437744140625,-1.8624843089401721,6.272271758514642,-6.069594638484716
1765549738335431000,8.320430908203125,-1.4898165329515933,6.384193671864271,-6.347028016552328
1765549738345424000,8.330423828125,-1.1385966186612844,6.335478448534012,-6.751429485931992
1765549738355416800,8.340416748046875,-0.7167009936451911,6.080885847827791,-7.358557175180316
1765549738365409800,8.350409912109376,-0.17414193041920661,5.909740761137009,-8.050780730172992
1765549738375403800,8.36040380859375,0.23173194960057733,5.7871115758121014,-8.792829515564442
1765549738385397000,8.37039697265625,0.6830997528165579,5.6091848661571735,-9.524479656538366
1765549738395389700,8.3803896484375,1.055535473614931,5.542120916187763,-10.096522588402033
1765549738405383000,8.3903828125,1.4146493560254574,5.7603416423082345,-10.513742622822523
1765549738415377000,8.400376953125,1.4909113424509763,5.707791955381632,-11.053900470125674
1765549738425369900,8.410369873046875,1.401613348841667,5.005968797394633,-11.782426341599225
1765549738435362800,8.42036279296875,1.55548932082355,4.382514242723584,-12.312159825521707
1765549738445355800,8.430355712890625,2.2414415404617785,3.989620548047125,-12.404942154115437
1765549738455349000,8.440348876953125,3.6877275592446326,3.639186815698445,-12.315261298668384
1765549738465342700,8.4503427734375,4.707317859253287,3.5670036230191586,-12.368752065837382
1765549738475336000,8.4603359375,5.4892994265824555,3.660506959363818,-12.546636105394363
1765549738485329000,8.470328857421874,5.894921962189674,3.9807928062081332,-12.747888161057233
1765549738495322000,8.480322021484374,6.059697513848543,4.300225251093506,-13.103060027843712
1765549738505314800,8.490314697265624,6.427144340318441,4.403688840438425,-13.60957980943918
1765549738515308800,8.500308837890625,6.8493480083703995,4.13258232730478,-14.127917454600333
1765549738525302000,8.510302001953125,7.453896787041425,3.600373100918531,-14.602629893046617
1765549738535294700,8.520294677734375,8.391247195258735,3.0065616971001026,-15.000201808667182
1765549738545288000,8.530287841796875,9.505530625918507,2.5878178141131998,-15.239984378254412
1765549738555282000,8.540281982421876,10.498424642181396,2.396861234754324,-15.130094262993335
1765549738565274600,8.550274658203126,11.462750151085853,2.5353663268640636,-14.573726454645394
1765549738575267800,8.560267822265626,11.878172196173667,2.8129315146178007,-13.903978935354948
1765549738585260800,8.5702607421875,11.731454863774776,3.1197002927631137,-13.634600853449106
1765549738595254000,8.58025390625,11.396112317574023,3.6032802205368872,-13.67038177640438
1765549738605247700,8.590247802734375,11.619627642971276,4.0794007722154255,-13.776527444440125
1765549738615240700,8.60024072265625,11.984940964543819,4.1739977490156885,-14.109613736146688
1765549738625234000,8.61023388671875,12.140430801463127,3.9761625160589813,-14.503677351385354
1765549738635226600,8.6202265625,11.761314579987525,3.70885305712074,-15.06803440492153
1765549738645220900,8.630220947265625,11.101588103973866,3.4037039891317487,-15.863291633409261
1765549738655213800,8.6402138671875,10.47198788615465,3.258322289250791,-16.75170996067524
1765549738665206800,8.650206787109376,9.769019649785756,3.371728011417389,-17.50559823694229
1765549738675199700,8.66019970703125,9.150753311407566,3.591925590568781,-17.98149725482464
1765549738685192700,8.670192626953124,8.44903653640449,3.988593250826001,-18.286858504259584
1765549738695187000,8.68018701171875,7.394069218066334,4.228418782772123,-18.858835385149717
1765549738705180000,8.690179931640625,6.050576049759984,4.401398683674633,-19.69265702983141
1765549738715172900,8.7001728515625,4.613877943533659,4.757000466310978,-20.478488258326053
1765549738725165800,8.710165771484375,3.3113112443774937,5.4838505135267965,-21.276910088324545
1765549738735159800,8.720159912109375,2.1447569437325,6.573776917043328,-22.331925337457655
1765549738745153000,8.730153076171876,0.9790659819185733,8.194317678970098,-23.639779037106035
1765549738755145700,8.740145751953126,-0.06994272027611732,10.270541769224405,-24.941628527903557
1765549738765139000,8.750138916015626,-1.38236095136106,12.418443440723419,-26.16875274032354
1765549738775132000,8.7601318359375,-2.6488936295837164,14.135036931216716,-27.162797680187225
1765549738785125600,8.770125732421874,-3.7410622590690847,15.640434479659795,-27.614887952458858
1765549738795118800,8.780118896484375,-5.650928496909141,16.686980006611346,-27.913814784932136
1765549738805111800,8.79011181640625,-8.647541923707722,17.306962501257658,-28.78702034549713
1765549738815104800,8.800104736328125,-12.148158180844783,18.09822510715127,-30.31554041085243
1765549738825097700,8.81009765625,-15.655927816867827,18.676928665947912,-32.40513368576765
1765549738835091700,8.820091796875,-18.157275846534965,18.691456372994182,-34.65388058080673
1765549738845085000,8.8300849609375,-19.951525408160684,19.407916543620825,-36.35117783467769
1765549738855077600,8.84007763671875,-21.083816789197922,20.950237170791624,-36.91433895642757
1765549738865070800,8.85007080078125,-22.767681730043886,22.865042034077643,-36.816445568430424
1765549738875064800,8.86006494140625,-24.973573818218707,24.99945177131891,-36.986111230218405
1765549738885058000,8.87005810546875,-27.675561324608324,26.38168471238613,-37.5484890926361
1765549738895050800,8.88005078125,-30.70052055592537,27.13510537114143,-37.76198921997547
1765549738905044000,8.8900439453125,-33.05330065689087,27.64617390208244,-37.82486740869283
1765549738915037000,8.900036865234375,-34.56093692417144,27.767455179929733,-37.73674488860369
1765549738925031000,8.910031005859375,-35.409985364079475,28.595217670702933,-37.38935885338783
1765549738935023900,8.92002392578125,-36.188764920496936,29.415891079998016,-37.129513154459
1765549738945016800,8.930016845703125,-36.83776425079107,30.029288351035117,-36.920911320555206
1765549738955010000,8.940010009765626,-37.11385732016563,30.870950772345065,-36.458117283439634
1765549738965003800,8.950003662109374,-37.43670278836488,31.584747861242292,-35.42444877371788
1765549738974996700,8.959996826171874,-37.58772220187187,32.0458678276658,-34.01807975478172
1765549738984990000,8.969989990234374,-37.464839334046836,32.58890269171,-33.02255012931823
1765549738994982700,8.979982666015625,-37.16706050256491,32.817478807628156,-33.17619989132881
1765549739004975900,8.989975830078125,-37.19916244474649,32.25816150182485,-33.307972168052196
1765549739014969900,8.999969970703125,-37.29303899831772,32.1190990680933,-32.01496064822673
1765549739024962800,9.009962890625,-36.81890757462978,31.56791363081932,-30.20054157427549
1765549739034955800,9.019955810546875,-35.53653435319662,30.056971307730674,-28.322568604302404
1765549739044948700,9.02994873046875,-34.130216772186756,28.44240494403839,-26.712935605359075
1765549739054942000,9.03994189453125,-33.00746011221408,26.60639830765724,-25.83309455230236
1765549739064936000,9.04993603515625,-32.397916009473796,24.73378189628124,-25.901794579041002
1765549739074928600,9.0599287109375,-31.523798594760894,23.17764200259447,-26.376793433213233
1765549739084921900,9.069921875,-29.21504000635147,21.85590941519737,-26.52813784089088
1765549739094914800,9.079914794921875,-26.630094825065136,20.921604950547216,-26.30407657204866
1765549739104909000,9.089908935546875,-24.262175607156752,20.507948161566258,-25.63378194026947
1765549739114901800,9.09990185546875,-22.028659014475345,20.073872853934763,-24.77826167399883
1765549739124895000,9.10989501953125,-20.27304284262657,19.448361951255798,-24.025180037939545
1765549739134888000,9.119887939453125,-19.560192679190635,18.632389266997574,-23.376819005548953
1765549739144881000,9.129880859375,-19.682521420264244,17.61048484482765,-22.964480897951123
1765549739154875000,9.139875,-20.08728412417173,16.25869497281909,-23.220258324527737
1765549739164867800,9.149867919921874,-19.30127753911018,15.378731170165539,-23.662304172646998
1765549739174860800,9.15986083984375,-17.844272557914255,15.87815602506399,-23.02732401535511
1765549739184853800,9.169853759765624,-16.710293077659607,16.68164098367095,-21.74542776378393
1765549739194847700,9.17984765625,-16.30326827403903,16.91403870370388,-19.577623121941087
1765549739204841000,9.189841064453125,-16.743807224726677,17.027779649174214,-16.53682100932598
1765549739214833700,9.199833740234375,-17.644679375374317,16.618551198029518,-13.196567163580655
1765549739224827000,9.209826904296875,-19.70036102833748,15.617995853358506,-9.606858664539455
1765549739234819800,9.21981982421875,-21.576145548355576,15.372673185300826,-6.394853013044595
1765549739244813800,9.229813720703126,-21.72512147333622,14.729902520263193,-3.8616847807466983
1765549739254806800,9.239806884765626,-19.961936912059784,13.757611147046088,-2.456097267577052
1765549739264799700,9.2497998046875,-18.889942471075056,13.283075234210491,-0.3788356509685516
1765549739274793000,9.25979296875,-34.94695284203291,14.079811303079127,8.729310690855979
1765549739284785700,9.26978564453125,-29.77614361104965,10.686059675902127,6.282041457378864
1765549739294780000,9.27977978515625,-25.443239494669434,13.856485362774134,2.861599976196885
1765549739304772900,9.28977294921875,-8.456223233038186,11.67668983888626,7.597035676431656
1765549739314765800,9.299765869140625,-14.567134216773509,10.000109209829569,6.204591722473502
1765549739324758800,9.3097587890625,-17.03643992549181,11.65567276982069,3.4224779554456473
1765549739334751700,9.319751708984375,-14.231881686943769,10.716839429569244,2.3718834453642366
1765549739344746000,9.32974609375,-10.93380343362689,9.330039034456014,1.6166139438718556
1765549739354739000,9.339739013671876,-8.034217133384942,8.33805161164403,1.0052888029336928
1765549739364732000,9.34973193359375,-6.247357097488641,7.682634231001138,1.5557435878455639
1765549739374724900,9.359724853515624,-4.750203061255812,7.9312933500051495,2.0815432394504545
1765549739384718800,9.36971875,-2.801402989387512,7.857230919450521,1.8437761013388632
1765549739394711800,9.3797119140625,-0.9779740950286387,7.106441778242588,1.198521802791953
1765549739404704800,9.389704833984375,0.6017839901328087,6.137292794704437,0.6349971084266901
1765549739414698000,9.399697998046875,1.2578361615478992,5.325759554198384,0.28710195464491844
1765549739424690700,9.409690673828125,0.9172796800911426,4.483107537329197,0.26684125690460203
1765549739434684700,9.4196845703125,-0.7754735006093978,3.9242645710393784,0.30545769554674623
1765549739444678000,9.429677978515626,-0.8650210850656032,4.1539927796021106,0.89960432266891
1765549739454670800,9.4396708984375,-0.3294958659991622,4.538656406071782,1.483739258864522
1765549739464663800,9.449663818359374,0.01412380242049694,4.0688077742695805,1.976818544128537
1765549739474656800,9.45965673828125,0.8951020428135991,3.8722263407662507,2.0321306815057993
1765549739484650800,9.469650634765625,0.913877178171277,4.099888556709885,1.9404145208388566
1765549739494644000,9.47964404296875,0.08514993401914835,3.8172505957365033,1.682327063754201
1765549739504636700,9.48963671875,-7.258481766968965,3.6894998296141623,2.9110838458120822
1765549739514630000,9.4996298828125,-3.4721424423247575,3.3700758602961898,2.8620781151026486
1765549739524622800,9.509622802734375,-4.102168776601553,2.585793614809215,1.9928537331283092
1765549739534616800,9.519616943359376,-2.9772587379872797,2.3961194764763114,1.8502327301323414
1765549739544609800,9.52960986328125,-2.06680831939429,2.4358161115705967,1.1680518457263707
1765549739554602800,9.539602783203126,-2.498905312690139,2.249076565384865,0.5144587579011917
1765549739564596000,9.549595947265624,-3.192849115604162,2.3285545912474395,-0.07772329114973545
1765549739574589200,9.559589111328124,-3.4359584915265438,2.285477081543207,-0.44952714378535746
1765549739584582400,9.56958251953125,-3.257126649725437,2.430615620318055,-0.7247866849452257
1765549739594575400,9.579575439453125,-2.764147317704558,2.738494990053773,-1.059284012493491
1765549739604568300,9.589568359375,-2.594180919404328,2.9070477221637963,-1.5476093812286853
1765549739614561300,9.599561279296875,-3.098767102588713,2.8902660987108946,-1.9296938048601149
1765549739624555300,9.60955517578125,-3.333727658846974,2.8217846831589934,-2.152064051875472
1765549739634548500,9.619548583984376,-3.231798147201538,2.989597410556674,-2.2841811965137717
1765549739644541200,9.629541259765626,-3.1497388726741073,2.8048914160251615,-2.666372587651014
1765549739654534400,9.639534423828126,-3.1416181100606915,2.4083950206816196,-3.169154351761937
1765549739664527400,9.64952734375,-2.7504227437347173,2.261358539330959,-3.779965697959065
1765549739674521300,9.659521240234374,-2.5995228649541735,2.422065818637609,-5.070501183059811
1765549739684514300,9.669514404296875,-2.937863423927128,2.737028424632549,-6.359970500233769
1765549739694507300,9.67950732421875,-3.254476427477598,2.9928689795732497,-7.395155259737372
1765549739704500500,9.68950048828125,-3.3420486202076076,3.0688217539191243,-7.842714318320155
1765549739714493200,9.6994931640625,-3.6292557887926695,2.858783165210485,-7.6171443984806535
1765549739724487400,9.7094873046875,-3.6849990110635757,2.6667244698286057,-6.999822647476196
1765549739734480400,9.71948046875,-3.8019454745769496,2.536788760882616,-6.583631371581554
1765549739744473300,9.729473388671876,-3.5313469109654423,2.485980364665389,-6.496009786751866
1765549739754466300,9.73946630859375,-2.738496451358497,3.002530541887879,-6.473689818394184
1765549739764459300,9.749459228515626,-2.734290816362202,3.992154158177972,-6.1259063082933425
1765549739774453500,9.75945361328125,-2.8931311327531932,5.11408898037374,-6.078946988719702
1765549739784446200,9.7694462890625,-3.562581422662735,5.69205370350182,-6.257576878207922
1765549739794439400,9.779439453125,-4.068055786858499,5.303469980978965,-6.488665853729843
1765549739804432400,9.789432373046875,-3.5885523147433993,4.789584639051556,-6.528542521566152
1765549739814426400,9.79942626953125,-3.3857568290308118,4.421639215409756,-6.187313839936256
1765549739824419300,9.80941943359375,-3.7367362125635144,4.253088821387291,-5.438253714478016
1765549739834412300,9.819412353515625,-4.289600396704674,4.367590814357996,-4.82687713561356
1765549739844405500,9.829405517578126,-4.985626266589761,4.546646820303797,-4.607653954452276
1765549739854398200,9.839398193359376,-4.951653269839286,4.852644029554725,-4.473721869346499
1765549739864392200,9.84939208984375,-4.316426152049004,5.305023055639863,-4.856820438456535
1765549739874385400,9.859385498046874,-3.8682285033017396,5.543829473671317,-6.1818210877388715
1765549739884378400,9.86937841796875,-3.4028882888346907,5.135612245395779,-7.631873181056976
1765549739894371300,9.879371337890625,-3.4374627586096524,4.248230275440216,-8.583789290243386
1765549739904364300,9.8893642578125,-3.8617791810318827,3.4733132396697997,-9.011725364467502
1765549739914358300,9.899358154296875,-4.444363088393211,3.037807606974244,-8.806610203635692
1765549739924351200,9.909351318359375,-4.85526327214241,3.2425194477021693,-8.376533025729655
1765549739934344200,9.91934423828125,-4.685046698473394,3.8039755190998314,-8.232745901563764
1765549739944337400,9.92933740234375,-3.742242408764362,3.908333719196915,-8.556266492545603
1765549739954330400,9.939330322265626,-2.43259700339362,3.5385827074378726,-9.229927385887503
1765549739964324400,9.949324462890624,-1.557684785041213,3.108836368921399,-9.965774394029378
1765549739974317300,9.9593173828125,-1.1288549768477678,2.775695716679096,-10.706138002812862
1765549739984310300,9.969310302734375,-0.8814765453040599,2.281720359358191,-11.158564959692955
1765549739994303200,9.97930322265625,-1.1665598536029458,1.548411929783225,-10.686786821132898
1765549740004297200,9.989297119140625,-1.3959434865117073,1.4337895253032444,-9.106775637993216
1765549740014290400,9.99929052734375,-1.1381994360372423,1.9641484476476907,-7.396299169075489
1765549740024283400,10.009283447265625,-0.30852848129421473,2.404125088277459,-6.068288232061266
1765549740034276400,10.0192763671875,0.7369923787847161,2.4110060799628497,-5.639752438378333
1765549740044269300,10.029269287109376,1.7039780468091368,2.0544348677724598,-6.035386079412699
1765549740054263300,10.03926318359375,1.984332865281403,1.6761819851279258,-7.201080548357963
1765549740064256500,10.049256591796874,1.3719094077125191,1.4703063613176346,-8.382699731665848
1765549740074249200,10.059249267578124,0.26926906857341526,1.105530799883604,-9.05525938576758
1765549740084242400,10.069242431640625,-1.2163210788547991,1.2363222488760948,-8.816845766445994
1765549740094235400,10.0792353515625,-2.3940318565472958,1.9745710574626922,-8.147908979016542
1765549740104229400,10.0892294921875,-3.024525516074896,2.9473557671546935,-7.074558447247743
1765549740114222300,10.099222412109375,-3.040131958268583,4.234394642311335,-5.467009853363037
1765549740124215300,10.10921533203125,-2.4707564920485017,5.526382664307952,-4.168433685147762
1765549740134208500,10.11920849609375,-1.4880316953614354,5.926818152666091,-4.369590463742614
1765549740144201200,10.129201171875,-0.6182330206304788,5.042334826761484,-5.951427693265676
1765549740154195200,10.1391953125,0.08923603428900241,3.962655091971159,-7.65762253934145
1765549740164188400,10.1491884765625,0.046231882081925864,3.207162887638807,-9.205283358496427
1765549740174181000,10.15918115234375,-0.46313569016009565,2.361605212455988,-10.163930821764469
1765549740184174300,10.16917431640625,-1.332026602396369,1.9017980821967124,-10.306107588124275
1765549740194168300,10.179168212890625,-2.268906470492482,2.2313649676054714,-10.044149427086115
1765549740204161300,10.189161376953125,-2.568771460598707,2.7927169941067693,-9.279614084598421
1765549740214154200,10.199154296875,-1.8088509184300898,2.853020363900065,-7.951002843603491
1765549740224147200,10.209147216796875,-0.6749170308828354,2.299112223663926,-6.902619579830765
1765549740234140400,10.219140380859375,0.2872504232048988,1.204021569252014,-6.6580643890142435
1765549740244134400,10.229134521484376,1.1347370206236838,-0.40745150460004803,-7.215915713918209
1765549740254127400,10.23912744140625,1.398948513546586,-1.9137819499790667,-8.18192990656197
1765549740264120300,10.249120361328124,0.7085738012909889,-3.0906273430138826,-9.32711759405136
1765549740274113500,10.259113525390624,-0.8231973748147488,-3.771819800904393,-10.295164169305563
1765549740284106200,10.269106201171875,-2.2372990338295695,-4.2575683048889035,-10.971173087078332
1765549740294100200,10.279100341796875,-3.0918788043797014,-4.534233036671578,-11.533243490982056
1765549740304093400,10.289093505859375,-2.9814065053164955,-4.750922607702017,-12.088574357497691
1765549740314086400,10.29908642578125,-1.407756673902273,-4.793074819254875,-12.432156324255466
1765549740324079400,10.309079345703125,0.720308078226447,-4.631683649337291,-12.292810981929302
1765549740334072300,10.319072265625,2.4155320329546925,-4.8913671434417365,-11.873152322185039
1765549740344066300,10.32906640625,3.4415877295851707,-5.818650038892031,-11.44598723233342
1765549740354059300,10.339059326171874,3.888819455909729,-7.291393856489658,-11.148207231807708
1765549740364052200,10.34905224609375,4.035757737582922,-8.887972728070617,-10.898210726720094
1765549740374045400,10.35904541015625,3.7362341082602737,-10.136346064746379,-10.53650039807558
1765549740384038400,10.369038330078125,2.861169183564186,-10.78799561728835,-9.96105496429205
1765549740394032000,10.3790322265625,1.9092256018489597,-10.663967086559534,-9.206691471728682
1765549740404025300,10.389025390625,1.24330611641407,-10.023049355912208,-8.442941142138839
1765549740414018300,10.399018310546875,0.5046913971245288,-8.895679649186134,-7.545093307748436
1765549740424011300,10.40901123046875,-0.20762743591368196,-7.894291945344209,-6.684196024614572
1765549740434005200,10.419005126953126,-0.3999631946712732,-7.223752398893237,-5.703120456439256
1765549740443998500,10.42899853515625,0.012127660167217254,-6.924426337969303,-4.92316834911108
1765549740453991400,10.438991455078124,0.5290870027124881,-6.734476597565412,-4.588098774632812
1765549740463984000,10.448984130859374,0.9193979874193667,-6.382052568182349,-4.460556098303199
1765549740473977300,10.458977294921874,1.0110989505171775,-5.820271502614021,-4.385180831584334
1765549740483971300,10.468971435546875,0.8973521598279476,-5.05996634504199,-4.307655108833313
1765549740493964500,10.478964599609375,0.9070634065032005,-4.261806965371966,-4.166207241269946
1765549740503957200,10.488957275390625,1.0388462046205997,-3.403934875278175,-3.8515474176138635
1765549740513950500,10.498950439453125,1.205192951118946,-2.5679747572630642,-3.389176574346423
1765549740523943400,10.508943359375,1.1610849293231964,-1.9383999661460518,-2.891986346632242
1765549740533937200,10.518937255859376,1.083676695472002,-1.6849688104346394,-2.639774211321771
1765549740543930400,10.528930419921876,1.1596113496392966,-1.58984284132421,-2.5472575479269026
1765549740553923300,10.53892333984375,1.140557105079293,-1.3344722419828177,-2.2198408262893556
1765549740563916500,10.54891650390625,1.1344207942813633,-0.8567395789325237,-1.661582381889224
1765549740573909200,10.5589091796875,1.0844663845449685,-0.25608313152492046,-0.9191276460453868
1765549740583903200,10.5689033203125,1.009205099594593,0.4209124591976404,0.040788814245164395
1765549740593896400,10.578896484375,0.9819096809118986,1.2533522941321134,0.9842091900259256
1765549740603889400,10.588889404296875,1.2388590738773346,1.930823685672879,1.9586177015274762
1765549740613882400,10.59888232421875,1.4306301844894884,2.5061399401187896,2.791018665756285
1765549740623876400,10.60887646484375,1.6985031225293874,2.670847102716565,3.0704157451122995
1765549740633869300,10.618869384765626,2.103413125953078,2.418431846049428,3.021510259906947
1765549740643862500,10.628862548828126,2.4129747496873137,2.0578227566450833,2.8332512490689754
1765549740653855200,10.638855224609374,2.390729015609622,1.7280302457869052,2.665258781190216
1765549740663848400,10.648848388671874,2.201047570753097,1.4659440744549035,2.6429057873457666
1765549740673842400,10.658842529296875,1.8967156643658876,1.3842992259472608,2.9384730802580714
1765549740683835400,10.66883544921875,1.3658774340718984,1.3441414030820131,3.224726309119165
1765549740693828400,10.678828369140625,0.807377874392271,0.9719237089484929,3.164965667900443
1765549740703821300,10.6888212890625,0.6414040528595447,0.3008230214834213,2.70165754378289
1765549740713814300,10.698814208984375,0.7207809564352035,-0.2565507490366697,2.286440081356466
1765549740723808300,10.708808349609376,0.8432955754697322,-0.6265478445112704,1.9037521388739347
1765549740733801500,10.718801513671876,1.1814303827375172,-0.769100458446145,1.481428351573646
1765549740743794400,10.72879443359375,1.5473358249843119,-0.8222054411679506,1.1559110338166356
1765549740753787400,10.738787353515624,1.8447604362010954,-0.8185486722260713,0.9419067563474178
1765549740763780400,10.7487802734375,2.0241279923141002,-0.7461445302724837,0.8369067512154579
1765549740773774300,10.7587744140625,2.0055127236932515,-0.6794523362249135,0.8013423936203121
1765549740783767600,10.768767578125,1.7694348538428544,-0.5308960979610681,0.7669909189462661
1765549740793760300,10.77876025390625,1.4427292030841112,-0.37841888686120506,0.7709519315317273
1765549740803753500,10.78875341796875,1.1142466057807205,-0.37724341334104533,0.7863619743704795
1765549740813746400,10.798746337890625,0.6582914747744798,-0.31194939565360547,0.9454290852546692
1765549740823740400,10.808740478515626,0.21729659701287746,-0.08515081080198288,1.1973738018006086
1765549740833733400,10.8187333984375,0.06481763234734535,0.1879582743257284,1.409317639608681
1765549740843726300,10.828726318359376,-0.0204302090883255,0.4068441863566637,1.5009768093913793
1765549740853719600,10.838719482421874,-0.3215805628299713,0.4835393035024404,1.4269704929381608
1765549740863713300,10.84871337890625,-0.5718365956366062,0.45275662722587584,1.3087933185860514
1765549740873706200,10.858706298828125,-0.4826689504086971,0.4160767096042633,1.0788976445019245
1765549740883699500,10.868699462890625,-0.22357085497677326,0.4780173252105713,0.7606102779984474
1765549740893692200,10.878692138671875,-0.004359364253282547,0.5558323862969875,0.5854740758448839
1765549740903685400,10.888685302734375,0.042031800043582916,0.5987748714447021,0.44453123519420623
1765549740913679400,10.898679443359375,-0.22791209905147553,0.7537041518718004,0.38230391160100696
1765549740923672300,10.90867236328125,-0.619793694075942,0.810479347538948,0.4180310585424304
1765549740933665300,10.918665283203126,-0.778112032419443,0.731018857333064,0.23755174179524183
1765549740943658200,10.928658203125,-0.8125579073786735,0.6088058515936136,0.03831102595478296
1765549740953651500,10.9386513671875,-0.8246960889399051,0.5276338812947273,0.031175182725489137
1765549740963645400,10.9486455078125,-0.9191676857948302,0.6330798766285181,0.0437707526654005
1765549740973638400,10.958638427734375,-1.0158300706923007,0.7380635151475667,0.037110125732421874
1765549740983631400,10.96863134765625,-1.020024015250802,0.631552520930767,0.05294686955064535
1765549740993624600,10.97862451171875,-1.1166782168418168,0.28805121819376944,-0.020716040292382238
1765549741003617300,10.9886171875,-1.3858213209480046,-0.19176994156837462,-0.2649880302533507
1765549741013611300,10.998611328125,-1.74840609433949,-0.7833505175948142,-0.7115159922227263
1765549741023604500,11.0086044921875,-2.0230589017778633,-1.3657225357711313,-1.2042542089641093
1765549741033597400,11.018597412109376,-2.2946359550327062,-1.7901164073437452,-1.536226109687984
1765549741043590400,11.02859033203125,-2.619469966700673,-1.908690179798007,-1.7112535907700657
1765549741053583400,11.038583251953124,-2.6805513351291417,-1.6120961741864681,-1.6903431969493627
1765549741063577300,11.048577392578125,-2.408099837127328,-1.0732815581858157,-1.2972060489058495
1765549741073570600,11.058570556640625,-1.822463264197111,-0.5357113892883062,-0.7774047609329223
1765549741083563300,11.068563232421875,-1.0425777923643589,-0.15876082141399384,-0.391039591242373
1765549741093556500,11.078556396484375,-0.20586744050383565,0.20444296065866946,-0.054421033756434915
1765549741103549400,11.088549560546875,0.6083130996406078,0.4976262810438871,0.2548115041539073
1765549741113543200,11.098543212890625,1.0785428397148846,0.8663193081825971,0.41783962762355803
1765549741123536400,11.108536376953126,1.491672974473238,1.289347736620903,0.611341507551074
1765549741133529300,11.118529296875,2.035769914790988,1.4440525606423615,0.8471639413356781
1765549741143522300,11.128522216796876,2.3909838671535253,1.2937030092209576,1.0341565854996442
1765549741153515300,11.138515380859374,2.1011691464185716,0.9725701901584863,1.1835767471164464
1765549741163509200,11.14850927734375,1.1603016699910162,0.6816933931499719,1.1997907998144626
1765549741173502500,11.15850244140625,0.14973346534967422,0.7150742692261934,1.3385849379986523
1765549741183495200,11.1684951171875,-0.6142576872587203,1.1050281110584734,1.653437653878331
1765549741193488400,11.17848828125,-0.7740116113632917,1.5901222427874802,2.3270485705986617
1765549741203482400,11.188482421875,-0.5823568206071853,2.0303134029507635,3.0986078203737732
1765549741213475600,11.1984755859375,-0.19618366635739803,2.3862708671569823,3.734428227882087
1765549741223468300,11.20846826171875,0.13456862944364548,2.765834247878194,4.085820576129853
1765549741233461500,11.21846142578125,0.283734524038434,3.2363919047325846,4.179228050884604
1765549741243454500,11.228454345703126,0.3276058144688606,3.67917191234529,4.142335659556091
1765549741253448400,11.238448486328124,0.22571546579003332,4.227966070568561,3.940300636821985
1765549741263441400,11.24844140625,-0.8013233966588974,4.815005496034026,4.019584601417184
1765549741273434400,11.258434326171875,-0.6072136139661073,4.664021738362312,4.293902185551822
1765549741283427600,11.268427490234375,-0.039654549518227576,5.13762416974008,4.659725210212171
1765549741293420300,11.278420166015625,0.16382102741301058,5.753124550536275,4.4034740286439655
1765549741303414300,11.288414306640625,0.18257132059037684,6.248345524004101,4.106714311076701
1765549741313407500,11.298407470703125,0.452105469840765,6.650766048699617,3.963570160989463
1765549741323400200,11.308400146484376,0.34095044921040535,6.7266878433853385,3.774540750300884
1765549741333393400,11.318393310546876,-1.047301313754916,6.746259389817714,3.4205116238087414
1765549741343386400,11.328386474609376,-1.7145117157831786,6.722617817467451,3.0883897932201623
1765549741353380400,11.33838037109375,-1.9817372958302497,6.88360625180304,2.9464538498789072
1765549741363373300,11.348373291015625,-1.6879823130369185,7.066745143148303,2.9170804558783767
1765549741373366300,11.3583662109375,-1.3614683854579925,7.244700494375825,3.049278849059343
1765549741383359500,11.368359375,-1.2481027030408383,7.569570161879062,3.2156682656556366
1765549741393352200,11.378352294921875,-1.479018952344358,7.803032880795001,3.2882337356507776
1765549741403346200,11.38834619140625,-1.9215625208526848,7.825681350454688,3.280422769638896
1765549741413339400,11.39833935546875,-2.249934058997035,7.756064208871126,3.1804332861453295
1765549741423332400,11.408332275390626,-2.7699732473790646,7.738678774306178,2.9227707764744757
1765549741433325300,11.4183251953125,-3.7411224648237225,7.635809351462125,2.441787002673745
1765549741443318300,11.428318359375,-5.168284096419811,7.184906243148446,1.7152391532748936
1765549741453312500,11.4383125,-6.036552200582623,6.94457246941924,1.1377268500894306
1765549741463305500,11.448305419921875,-6.3492626437366,7.117171262049674,0.7547533686637878
1765549741473298400,11.45829833984375,-6.232125626087188,7.350114925527572,0.6150713417291641
1765549741483291400,11.46829150390625,-5.731636941349506,7.4310238609761,0.45949499557018275
1765549741493284400,11.478284423828125,-5.252245405176281,7.498952318820357,0.2067465614259243
1765549741503278300,11.4882783203125,-5.080087926572561,7.617763991683721,-0.25892566147446633
1765549741513271300,11.498271240234375,-5.179974534213542,7.631750431460142,-0.999813001871109
1765549741523264500,11.508264404296876,-5.403445435947179,7.532937006008624,-1.7538152599066494
1765549741533257500,11.518257568359376,-5.535812755954265,7.3871397110640995,-2.4436831916838884
1765549741543250400,11.52825048828125,-5.775873557960987,6.975472634595632,-3.1821301531910895
1765549741553244400,11.538244384765624,-6.003835925894975,6.401152989971638,-3.8652223072230814
1765549741563237400,11.5482373046875,-6.083819563192129,6.274640241211652,-4.4017841758608816
1765549741573230300,11.558230224609375,-6.161798290407657,6.216126677444577,-4.80362193223238
1765549741583223300,11.568223388671875,-6.016926293614507,6.07930471611619,-5.1208670962065455
1765549741593217300,11.57821728515625,-6.045716334769129,6.176006848502158,-5.559856479364633
1765549741603210500,11.58821044921875,-5.932970245555043,6.386951446139812,-6.105822136163711
1765549741613203200,11.598203125,-5.681007408830523,6.401715884551406,-6.850785932219028
1765549741623196400,11.608196533203126,-5.736421253016591,6.152310331094265,-7.422505623477697
1765549741633189400,11.618189453125,-5.866039566576481,5.906863744395971,-7.836730567735433
1765549741643183000,11.62818310546875,-6.273591024419665,5.6709343431055546,-8.425435296064615
1765549741653176300,11.63817626953125,-6.623534927424788,5.49503475536406,-9.26518048557639
1765549741663169300,11.648169189453125,-6.864914995336532,5.384372486686706,-10.127550179350376
1765549741673162200,11.658162353515625,-7.0037623250126835,5.023977916815877,-10.950956813001632
1765549741683155200,11.6681552734375,-6.645742083057761,4.630915003052354,-11.745020447790623
1765549741693149400,11.6781494140625,-5.960632159462571,4.375448249860107,-12.40687809061408
1765549741703142400,11.688142333984375,-5.2669607437491415,4.1384889210000635,-12.990908981913327
1765549741713135400,11.69813525390625,-4.497027341610193,3.8311321138337253,-13.4192045370996
1765549741723128300,11.70812841796875,-3.4306811356455085,3.632917526170611,-13.583816422629356
1765549741733121300,11.718121337890626,-2.424141455867886,3.5281276566579938,-13.72039814546108
1765549741743115500,11.728115478515624,-1.1216215184628964,3.330991804142296,-14.11087747247219
1765549741753108200,11.738108154296874,0.5099836583137511,3.0546628801852465,-14.490487030422686
1765549741763101400,11.748101318359375,1.8284224648624658,2.4146260240256785,-14.795254405617714
1765549741773094400,11.758094482421875,2.7821272110313173,1.645213869281858,-15.073088181179761
1765549741783087400,11.76808740234375,3.248717717820406,1.1631315596546976,-15.239415053933858
1765549741793081300,11.778081298828125,3.5377842505365606,0.8552272016081959,-15.60521352867484
1765549741803074300,11.78807421875,3.9398873798459766,0.7721976938091218,-16.42301342836022
1765549741813067500,11.798067626953125,4.249163172376155,1.1428699120663106,-17.155490667808056
1765549741823060200,11.808060302734376,5.11050819927752,1.4764882648229598,-17.407888388818503
1765549741833054200,11.81805419921875,6.475246984708309,1.1818890862904488,-17.688038040107486
1765549741843047400,11.82804736328125,7.936858582916855,0.6783326114799827,-17.858766362690925
1765549741853040000,11.8380400390625,8.962092441770434,0.335169527721405,-17.802461707144975
1765549741863033300,11.848033447265625,9.257266643711924,0.12136778708696365,-17.92361906635165
1765549741873026300,11.8580263671875,8.89703223283887,-0.32321064824983475,-18.659781131792066
1765549741883020300,11.868020263671875,8.664623406890033,-0.6534744298815727,-19.696369912874697
1765549741893013200,11.87801318359375,8.711851606532932,-0.7204236674301325,-20.489863054299352
1765549741903006200,11.888006103515625,8.782502767339349,-0.8018000742599367,-21.034775402653217
1765549741912999400,11.89799951171875,8.658430981990694,-1.1153947529025374,-21.68845090806484
1765549741922992000,11.9079921875,7.900885936781764,-1.1006241770111023,-21.826940510344503
1765549741932986400,11.917986328125,6.483340859314799,-0.6896819807510822,-21.59880161679983
1765549741942979300,11.927979248046874,5.286522937831283,-0.46004086594991384,-21.429566163122654
1765549741952972300,11.93797216796875,4.602714744484424,-0.2770690747998655,-21.356510279262064
1765549741962965200,11.94796533203125,3.788765090486407,-0.2008819802414626,-21.599669047284124
1765549741972958200,11.957958251953125,2.7349989646315573,-0.11821019983887672,-22.063814499008654
1765549741982952400,11.967952392578125,1.2586428017556666,0.2174250456981361,-22.772383624124526
1765549741992945400,11.9779453125,-0.512304210215807,0.976870006244257,-23.713676632487772
1765549742002938400,11.9879384765625,-2.286581243392825,2.0312606206730006,-24.378827471637724
1765549742012931300,11.997931396484375,-4.165272590768337,2.926151066562533,-24.606671766149997
1765549742022924500,12.007924560546876,-5.9431023479908704,3.974444898486137,-24.47706689659357
1765549742032918300,12.017918212890624,-7.450026083087921,5.387214432114362,-24.19447861998081
1765549742042911200,12.0279111328125,-8.486777361255884,6.745171594581008,-23.94332125442028
1765549742052904400,12.037904541015624,-9.170078189602494,7.767901946181058,-24.078079268956184
1765549742062897400,12.0478974609375,-9.831298119044304,8.529615801507234,-24.43918754005432
1765549742072890400,12.057890380859375,-11.192947706288098,9.048333385896683,-25.148890637636182
1765549742082884400,12.06788427734375,-12.891733152890204,9.16454744348228,-26.24160521056652
1765549742092877300,12.077877197265625,-14.534314481711387,9.476295179083943,-27.09335180351734
1765549742102870300,12.087870361328125,-15.53400590302944,10.292802700871228,-27.616816874694823
1765549742112863200,12.09786328125,-16.152866115647555,11.232469569337367,-28.229112906491753
1765549742122857200,12.107857177734376,-17.195985175281763,12.241399943643808,-29.133992539215086
1765549742132850400,12.117850341796874,-19.190197337281703,13.611817359232901,-29.972727674901485
1765549742142843100,12.127843017578124,-21.889750894522667,15.413814173984527,-30.850342868602272
1765549742152836400,12.13783642578125,-24.371700980758664,17.18142356596589,-31.82246589951515
1765549742162829300,12.147829345703125,-26.320945873785018,18.523316313338277,-31.872868053019044
1765549742172823600,12.157823486328125,-27.34149303612709,20.070202056467533,-31.34159844557047
1765549742182816300,12.167816162109375,-27.83003409343958,21.5546982711792,-31.002952181649206
1765549742192809200,12.177809326171875,-28.30373998519182,22.980667478120324,-30.722882025337217
1765549742202802400,12.187802490234375,-28.959917244291304,24.291541986894607,-30.106597216165063
1765549742212795100,12.197795166015625,-29.431691875720023,25.27469143873453,-29.24580923862457
1765549742222789400,12.207789306640626,-29.704499932074544,26.208168220388888,-28.414067322826384
1765549742232782300,12.2177822265625,-29.95348755238056,26.84129661233425,-27.51243295563459
1765549742242775600,12.227775634765624,-30.361193908524513,27.038497931301592,-26.61821967835426
1765549742252768300,12.237768310546874,-30.677943982458114,27.192959009695052,-25.778264060962197
1765549742262761500,12.247761474609375,-30.908161435842512,27.474373566353318,-25.019248358678816
1765549742272755500,12.25775537109375,-30.699445035648345,27.826865984797475,-24.221906725132463
1765549742282748200,12.267748046875,-29.952505555605885,27.993164800500868,-23.48744094221592
1765549742292741400,12.277741455078125,-29.179468342232703,28.1589398845911,-23.032928411233424
1765549742302734300,12.287734375,-28.63824549604654,28.041937306976315,-22.540082934725284
1765549742312728300,12.297728271484376,-28.274188896536824,27.73942618627548,-21.470721180331704
1765549742322721300,12.30772119140625,-27.48455827575922,27.429061429464817,-20.18031429004669
1765549742332714200,12.31771435546875,-25.91255679607391,26.814649428427217,-18.834559022027253
1765549742342707500,12.32770751953125,-24.17948446446657,25.755348464798924,-17.60330457793474
1765549742352700200,12.3377001953125,-22.277560125541687,24.51345455327034,-16.954758836627004
1765549742362694100,12.347694091796875,-20.629435191118716,23.428228874790666,-16.703898408186436
1765549742372687400,12.357687255859375,-19.478819048839807,22.533014896035194,-16.563070718348026
1765549742382680300,12.367680419921875,-18.771367529577017,21.48917336734533,-16.22193205308914
1765549742392673300,12.37767333984375,-18.22754589906931,20.28889741436243,-15.958179409849643
1765549742402666200,12.387666259765625,-17.488053227901457,19.37053169260025,-15.899237391537428
1765549742412660500,12.397660400390626,-16.957817055153846,18.687651135492324,-16.180824966675043
1765549742422653400,12.4076533203125,-16.72834077552557,17.65680937362909,-16.743048515313863
1765549742432646400,12.417646484375,-16.15130193507075,16.58954254568815,-17.139966935461757
1765549742442639400,12.427639404296874,-15.448025071144103,15.78800404497385,-17.24330105320811
1765549742452632300,12.43763232421875,-14.65430396618247,15.189863964301347,-17.00014813040495
1765549742462626300,12.447626220703125,-13.746934270209072,14.768303270328044,-16.563884372818467
1765549742472619300,12.457619384765625,-13.035783896428345,14.373664485549925,-16.147618278121946
1765549742482612500,12.467612548828125,-12.748043643879889,13.697391363883018,-15.594828912782669
1765549742492605400,12.47760546875,-12.66987903870344,12.878283304208516,-14.625703310120105
1765549742502598400,12.487598388671875,-12.7617132727921,12.231143922567368,-13.24885498470068
1765549742512592400,12.49759228515625,-12.943355788099765,11.36834752781391,-12.196937701582907
1765549742522585300,12.50758544921875,-12.739191644382476,10.4197526720047,-11.438517042583227
1765549742532578300,12.517578369140624,-12.425622538572549,9.873701675009727,-10.276498047280311
1765549742542571300,12.5275712890625,-12.899451179921627,9.217947609758376,-8.995832798808813
1765549742552564500,12.537564453125,-13.905395816415547,8.281777935758232,-7.659742015713453
1765549742562558500,12.547558349609375,-14.99412395005822,8.120078138282894,-6.070003803807497
1765549742572551700,12.5575517578125,-16.08489440318346,8.36430950397253,-4.018426663553715
1765549742582545000,12.567544921875,-16.808377019792793,8.416810675582289,-1.5163964968413113
1765549742592537900,12.577537841796875,-16.926132461601494,8.268918454185128,0.32615970731377597
1765549742602530800,12.58753076171875,-16.716075168192386,7.635105002585053,0.9995780240714549
1765549742612524800,12.59752490234375,-16.311686558294294,6.7171911162436,1.287632164874673
1765549742622517800,12.607517822265624,-15.955734939306973,6.07283230523169,1.7249807950884102
